<?xml version='1.0' encoding='UTF-8'?>
<!--
    Copyright © 2008-2026 Pinnacle 21 LLC

    This file is part of Pinnacle 21 Community.

    Pinnacle 21 Community is free software licensed under the Pinnacle 21 Open Source Software License
    located at [https://www.pinnacle21.com/license] (the “License”).

    Pinnacle 21 Community is distributed in the hope that it will be useful, but WITHOUT ANY WARRANTY,
    and is distributed “AS IS,” “WITH ALL FAULTS,” and without the implied warranty of
    MERCHANTABILITY or FITNESS FOR A PARTICULAR PURPOSE.
    See the License for more details.

    @see CHANGELOG.txt
-->
<ODM xmlns="http://www.cdisc.org/ns/odm/v1.3" xmlns:xsi="http://www.w3.org/2001/XMLSchema-instance" xmlns:xlink="http://www.w3.org/1999/xlink" xmlns:def="http://www.cdisc.org/ns/def/v2.0" xmlns:val="http://www.opencdisc.org/schema/validator" xmlns:oce="http://oce.opencdisc.com" xsi:schemaLocation="http://www.cdisc.org/ns/odm/v1.3 resources/schema/validator1-0-0.xsd" FileType="Snapshot" FileOID="ADaM-TIG-1.0" CreationDateTime="2026-01-21T14:43:20.293700876Z" ODMVersion="1.3" Originator="Pinnacle 21 LLC" xml:lang="en">
    <Study OID="ADaM-TIG 1.0">
        <GlobalVariables>
            <StudyName>Pinnacle 21 Validator Configuration</StudyName>
            <StudyDescription>Pinnacle 21 Validator Configuration for ADaM-TIG 1.0</StudyDescription>
            <ProtocolName>Pinnacle 21 Validator Configuration</ProtocolName>
        </GlobalVariables>
        <MetaDataVersion OID="ADaM-TIG 1.0" Name="ADaM-TIG 1.0" Description="This spec validates study data compliance with standard ADaM-TIG version 1.0" def:DefineVersion="2.0.0" def:StandardName="ADaM-TIG" def:StandardVersion="1.0">
            <ItemGroupDef OID="IG.GLOBAL" Name="GLOBAL" Repeating="No" IsReferenceData="No" def:Class="SYSTEM" def:ArchiveLocationID="Location.GLOBAL">
                <Description>
                    <TranslatedText xml:lang="en">Global Rules Section</TranslatedText>
                </Description>
                <def:leaf ID="Location.GLOBAL" xlink:href="global.xpt">
                    <def:title>global.xpt</def:title>
                </def:leaf>
                <val:ValidationRuleRef RuleID="AD0001" Active="Yes"/>
                <val:ValidationRuleRef RuleID="AD0061" Active="Yes"/>
                <val:ValidationRuleRef RuleID="AD0061A" Active="Yes"/>
                <val:ValidationRuleRef RuleID="AD1024" Active="Yes"/>
                <val:ValidationRuleRef RuleID="AD1025" Active="Yes"/>
                <val:ValidationRuleRef RuleID="AD1026" Active="Yes"/>
                <val:ValidationRuleRef RuleID="DD0101" Active="Yes"/>
                <val:ValidationRuleRef RuleID="SD0061" Active="Yes"/>
                <val:ValidationRuleRef RuleID="SD1457" Active="Yes"/>
            </ItemGroupDef>
            <ItemGroupDef OID="IG.UNRECOGNIZED" Name="UNRECOGNIZED" Repeating="No" IsReferenceData="No" def:Class="SYSTEM" def:ArchiveLocationID="Location.UNRECOGNIZED">
                <Description>
                    <TranslatedText xml:lang="en">Unrecognized</TranslatedText>
                </Description>
                <def:leaf ID="Location.UNRECOGNIZED" xlink:href="unrecognized.xpt">
                    <def:title>unrecognized.xpt</def:title>
                </def:leaf>
                <val:ValidationRuleRef RuleID="AD9999" Active="Yes"/>
            </ItemGroupDef>
            <ItemGroupDef OID="IG.ADSL" Name="ADSL" Repeating="No" IsReferenceData="No" Purpose="Analysis" def:Structure="One record per subject" def:Class="SUBJECT LEVEL ANALYSIS DATASET" def:ArchiveLocationID="Location.ADSL">
                <Description>
                    <TranslatedText xml:lang="en">Subject-Level Analysis Dataset</TranslatedText>
                </Description>
                <ItemRef ItemOID="IT.ADSL.STUDYID" OrderNumber="1" Mandatory="Yes" KeySequence="1" Role="ADSL Identifier Variables" val:Core="Required"/>
                <ItemRef ItemOID="IT.ADSL.USUBJID" OrderNumber="2" Mandatory="Yes" KeySequence="2" Role="ADSL Identifier Variables" val:Core="Required"/>
                <ItemRef ItemOID="IT.ADSL.SUBJID" OrderNumber="3" Mandatory="Yes" Role="ADSL Identifier Variables" val:Core="Required"/>
                <ItemRef ItemOID="IT.ADSL.SITEID" OrderNumber="4" Mandatory="Yes" Role="ADSL Identifier Variables" val:Core="Required"/>
                <ItemRef ItemOID="IT.ADSL.SITEGR#" OrderNumber="5" Mandatory="No" Role="ADSL Identifier Variables" val:Core="Permissible"/>
                <ItemRef ItemOID="IT.ADSL.SITEGR#N" OrderNumber="6" Mandatory="No" Role="ADSL Identifier Variables" val:Core="Permissible"/>
                <ItemRef ItemOID="IT.ADSL.REGION#" OrderNumber="7" Mandatory="No" Role="ADSL Identifier Variables" val:Core="Permissible"/>
                <ItemRef ItemOID="IT.ADSL.REGION#N" OrderNumber="8" Mandatory="No" Role="ADSL Identifier Variables" val:Core="Permissible"/>
                <ItemRef ItemOID="IT.ADSL.AGE" OrderNumber="9" Mandatory="Yes" Role="ADSL Subject Demographics Variables" val:Core="Required"/>
                <ItemRef ItemOID="IT.ADSL.AGEU" OrderNumber="10" Mandatory="Yes" Role="ADSL Subject Demographics Variables" val:Core="Required"/>
                <ItemRef ItemOID="IT.ADSL.AGEGR#" OrderNumber="11" Mandatory="No" Role="ADSL Subject Demographics Variables" val:Core="Permissible"/>
                <ItemRef ItemOID="IT.ADSL.AGEGR#N" OrderNumber="12" Mandatory="No" Role="ADSL Subject Demographics Variables" val:Core="Permissible"/>
                <ItemRef ItemOID="IT.ADSL.AAGE" OrderNumber="13" Mandatory="No" Role="ADSL Subject Demographics Variables" val:Core="Conditional"/>
                <ItemRef ItemOID="IT.ADSL.SEX" OrderNumber="14" Mandatory="Yes" Role="ADSL Subject Demographics Variables" val:Core="Required"/>
                <ItemRef ItemOID="IT.ADSL.RACE" OrderNumber="15" Mandatory="Yes" Role="ADSL Subject Demographics Variables" val:Core="Required"/>
                <ItemRef ItemOID="IT.ADSL.RACEGR#" OrderNumber="16" Mandatory="No" Role="ADSL Subject Demographics Variables" val:Core="Permissible"/>
                <ItemRef ItemOID="IT.ADSL.RACEGR#N" OrderNumber="17" Mandatory="No" Role="ADSL Subject Demographics Variables" val:Core="Permissible"/>
                <ItemRef ItemOID="IT.ADSL.FASFL" OrderNumber="18" Mandatory="No" Role="ADSL Population Indicator Variables" val:Core="Conditional"/>
                <ItemRef ItemOID="IT.ADSL.FASFN" OrderNumber="19" Mandatory="No" Role="Population Flag" val:Core="Permissible"/>
                <ItemRef ItemOID="IT.ADSL.SAFFL" OrderNumber="20" Mandatory="No" Role="ADSL Population Indicator Variables" val:Core="Conditional"/>
                <ItemRef ItemOID="IT.ADSL.SAFFN" OrderNumber="21" Mandatory="No" Role="Population Flag" val:Core="Permissible"/>
                <ItemRef ItemOID="IT.ADSL.ITTFL" OrderNumber="22" Mandatory="No" Role="ADSL Population Indicator Variables" val:Core="Conditional"/>
                <ItemRef ItemOID="IT.ADSL.ITTFN" OrderNumber="23" Mandatory="No" Role="Population Flag" val:Core="Permissible"/>
                <ItemRef ItemOID="IT.ADSL.PPROTFL" OrderNumber="24" Mandatory="No" Role="ADSL Population Indicator Variables" val:Core="Conditional"/>
                <ItemRef ItemOID="IT.ADSL.PPROTFN" OrderNumber="25" Mandatory="No" Role="Population Flag" val:Core="Permissible"/>
                <ItemRef ItemOID="IT.ADSL.COMPLFL" OrderNumber="26" Mandatory="No" Role="ADSL Population Indicator Variables" val:Core="Conditional"/>
                <ItemRef ItemOID="IT.ADSL.COMPLFN" OrderNumber="27" Mandatory="No" Role="Population Flag" val:Core="Permissible"/>
                <ItemRef ItemOID="IT.ADSL.RANDFL" OrderNumber="28" Mandatory="No" Role="ADSL Population Indicator Variables" val:Core="Conditional"/>
                <ItemRef ItemOID="IT.ADSL.RANDFN" OrderNumber="29" Mandatory="No" Role="Population Flag" val:Core="Permissible"/>
                <ItemRef ItemOID="IT.ADSL.ENRLFL" OrderNumber="30" Mandatory="No" Role="ADSL Population Indicator Variables" val:Core="Conditional"/>
                <ItemRef ItemOID="IT.ADSL.ENRLFN" OrderNumber="31" Mandatory="No" Role="Population Flag" val:Core="Permissible"/>
                <ItemRef ItemOID="IT.ADSL.ARM" OrderNumber="32" Mandatory="Yes" Role="ADSL Product Variables" val:Core="Required"/>
                <ItemRef ItemOID="IT.ADSL.ACTARM" OrderNumber="33" Mandatory="No" Role="ADSL Product Variables" val:Core="Permissible"/>
                <ItemRef ItemOID="IT.ADSL.*FL" OrderNumber="34" Mandatory="No" Role="Flag" val:Core="Permissible"/>
                <ItemRef ItemOID="IT.ADSL.TRT01P" OrderNumber="35" Mandatory="Yes" Role="ADSL Product Variables" val:Core="Required"/>
                <ItemRef ItemOID="IT.ADSL.TRT#P" OrderNumber="36" Mandatory="No" Role="ADSL Product Variables" val:Core="Permissible"/>
                <ItemRef ItemOID="IT.ADSL.TRT#PN" OrderNumber="37" Mandatory="No" Role="ADSL Product Variables" val:Core="Permissible"/>
                <ItemRef ItemOID="IT.ADSL.TRT#A" OrderNumber="38" Mandatory="No" Role="ADSL Product Variables" val:Core="Conditional"/>
                <ItemRef ItemOID="IT.ADSL.TRT#AN" OrderNumber="39" Mandatory="No" Role="ADSL Product Variables" val:Core="Permissible"/>
                <ItemRef ItemOID="IT.ADSL.TRTSEQP" OrderNumber="40" Mandatory="No" Role="ADSL Product Variables" val:Core="Conditional"/>
                <ItemRef ItemOID="IT.ADSL.TRTSEQPN" OrderNumber="41" Mandatory="No" Role="ADSL Product Variables" val:Core="Permissible"/>
                <ItemRef ItemOID="IT.ADSL.TRTSEQA" OrderNumber="42" Mandatory="No" Role="ADSL Product Variables" val:Core="Conditional"/>
                <ItemRef ItemOID="IT.ADSL.TRTSEQAN" OrderNumber="43" Mandatory="No" Role="ADSL Product Variables" val:Core="Permissible"/>
                <ItemRef ItemOID="IT.ADSL.TR#PG#" OrderNumber="44" Mandatory="No" Role="ADSL Product Variables" val:Core="Permissible"/>
                <ItemRef ItemOID="IT.ADSL.TR#PG#N" OrderNumber="45" Mandatory="No" Role="ADSL Product Variables" val:Core="Permissible"/>
                <ItemRef ItemOID="IT.ADSL.TR#AG#" OrderNumber="46" Mandatory="No" Role="ADSL Product Variables" val:Core="Conditional"/>
                <ItemRef ItemOID="IT.ADSL.TR#AG#N" OrderNumber="47" Mandatory="No" Role="ADSL Product Variables" val:Core="Permissible"/>
                <ItemRef ItemOID="IT.ADSL.TSEQPG#" OrderNumber="48" Mandatory="No" Role="ADSL Product Variables" val:Core="Permissible"/>
                <ItemRef ItemOID="IT.ADSL.TSEQPG#N" OrderNumber="49" Mandatory="No" Role="ADSL Product Variables" val:Core="Permissible"/>
                <ItemRef ItemOID="IT.ADSL.TSEQAG#" OrderNumber="50" Mandatory="No" Role="ADSL Product Variables" val:Core="Conditional"/>
                <ItemRef ItemOID="IT.ADSL.TSEQAG#N" OrderNumber="51" Mandatory="No" Role="ADSL Product Variables" val:Core="Permissible"/>
                <ItemRef ItemOID="IT.ADSL.DOSE#P" OrderNumber="52" Mandatory="No" Role="ADSL Dose Variables" val:Core="Permissible"/>
                <ItemRef ItemOID="IT.ADSL.DOSE#A" OrderNumber="53" Mandatory="No" Role="ADSL Dose Variables" val:Core="Permissible"/>
                <ItemRef ItemOID="IT.ADSL.DOSE#U" OrderNumber="54" Mandatory="No" Role="ADSL Dose Variables" val:Core="Permissible"/>
                <ItemRef ItemOID="IT.ADSL.TRTSDT" OrderNumber="55" Mandatory="No" Role="ADSL Product Timing Variables" val:Core="Conditional"/>
                <ItemRef ItemOID="IT.ADSL.TRTSTM" OrderNumber="56" Mandatory="No" Role="ADSL Product Timing Variables" val:Core="Permissible"/>
                <ItemRef ItemOID="IT.ADSL.TRTSDTM" OrderNumber="57" Mandatory="No" Role="ADSL Product Timing Variables" val:Core="Conditional"/>
                <ItemRef ItemOID="IT.ADSL.TRTSDTF" OrderNumber="58" Mandatory="No" Role="ADSL Product Timing Variables" val:Core="Conditional"/>
                <ItemRef ItemOID="IT.ADSL.TRTSTMF" OrderNumber="59" Mandatory="No" Role="ADSL Product Timing Variables" val:Core="Conditional"/>
                <ItemRef ItemOID="IT.ADSL.TRTEDT" OrderNumber="60" Mandatory="No" Role="ADSL Product Timing Variables" val:Core="Conditional"/>
                <ItemRef ItemOID="IT.ADSL.TRTETM" OrderNumber="61" Mandatory="No" Role="ADSL Product Timing Variables" val:Core="Permissible"/>
                <ItemRef ItemOID="IT.ADSL.TRTEDTM" OrderNumber="62" Mandatory="No" Role="ADSL Product Timing Variables" val:Core="Conditional"/>
                <ItemRef ItemOID="IT.ADSL.TRTEDTF" OrderNumber="63" Mandatory="No" Role="ADSL Product Timing Variables" val:Core="Conditional"/>
                <ItemRef ItemOID="IT.ADSL.TRTETMF" OrderNumber="64" Mandatory="No" Role="ADSL Product Timing Variables" val:Core="Conditional"/>
                <ItemRef ItemOID="IT.ADSL.TR#SDT" OrderNumber="65" Mandatory="No" Role="ADSL Product Timing Variables" val:Core="Conditional"/>
                <ItemRef ItemOID="IT.ADSL.TR#STM" OrderNumber="66" Mandatory="No" Role="ADSL Product Timing Variables" val:Core="Conditional"/>
                <ItemRef ItemOID="IT.ADSL.TR#SDTM" OrderNumber="67" Mandatory="No" Role="ADSL Product Timing Variables" val:Core="Conditional"/>
                <ItemRef ItemOID="IT.ADSL.TR#SDTF" OrderNumber="68" Mandatory="No" Role="ADSL Product Timing Variables" val:Core="Conditional"/>
                <ItemRef ItemOID="IT.ADSL.TR#STMF" OrderNumber="69" Mandatory="No" Role="ADSL Product Timing Variables" val:Core="Conditional"/>
                <ItemRef ItemOID="IT.ADSL.TR#EDT" OrderNumber="70" Mandatory="No" Role="ADSL Product Timing Variables" val:Core="Conditional"/>
                <ItemRef ItemOID="IT.ADSL.TR#ETM" OrderNumber="71" Mandatory="No" Role="ADSL Product Timing Variables" val:Core="Conditional"/>
                <ItemRef ItemOID="IT.ADSL.TR#EDTM" OrderNumber="72" Mandatory="No" Role="ADSL Product Timing Variables" val:Core="Conditional"/>
                <ItemRef ItemOID="IT.ADSL.TR#EDTF" OrderNumber="73" Mandatory="No" Role="ADSL Product Timing Variables" val:Core="Conditional"/>
                <ItemRef ItemOID="IT.ADSL.TR#ETMF" OrderNumber="74" Mandatory="No" Role="ADSL Product Timing Variables" val:Core="Conditional"/>
                <ItemRef ItemOID="IT.ADSL.AP#SDT" OrderNumber="75" Mandatory="No" Role="Subject-Level Period, Subperiod, and Phase Timing Variables" val:Core="Permissible"/>
                <ItemRef ItemOID="IT.ADSL.AP#STM" OrderNumber="76" Mandatory="No" Role="Subject-Level Period, Subperiod, and Phase Timing Variables" val:Core="Permissible"/>
                <ItemRef ItemOID="IT.ADSL.AP#SDTM" OrderNumber="77" Mandatory="No" Role="Subject-Level Period, Subperiod, and Phase Timing Variables" val:Core="Permissible"/>
                <ItemRef ItemOID="IT.ADSL.AP#SDTF" OrderNumber="78" Mandatory="No" Role="Subject-Level Period, Subperiod, and Phase Timing Variables" val:Core="Conditional"/>
                <ItemRef ItemOID="IT.ADSL.AP#STMF" OrderNumber="79" Mandatory="No" Role="Subject-Level Period, Subperiod, and Phase Timing Variables" val:Core="Conditional"/>
                <ItemRef ItemOID="IT.ADSL.AP#EDT" OrderNumber="80" Mandatory="No" Role="Subject-Level Period, Subperiod, and Phase Timing Variables" val:Core="Permissible"/>
                <ItemRef ItemOID="IT.ADSL.AP#ETM" OrderNumber="81" Mandatory="No" Role="Subject-Level Period, Subperiod, and Phase Timing Variables" val:Core="Permissible"/>
                <ItemRef ItemOID="IT.ADSL.AP#EDTM" OrderNumber="82" Mandatory="No" Role="Subject-Level Period, Subperiod, and Phase Timing Variables" val:Core="Permissible"/>
                <ItemRef ItemOID="IT.ADSL.AP#EDTF" OrderNumber="83" Mandatory="No" Role="Subject-Level Period, Subperiod, and Phase Timing Variables" val:Core="Conditional"/>
                <ItemRef ItemOID="IT.ADSL.AP#ETMF" OrderNumber="84" Mandatory="No" Role="Subject-Level Period, Subperiod, and Phase Timing Variables" val:Core="Conditional"/>
                <ItemRef ItemOID="IT.ADSL.P#S#" OrderNumber="85" Mandatory="No" Role="Subject-Level Period, Subperiod, and Phase Timing Variables" val:Core="Permissible"/>
                <ItemRef ItemOID="IT.ADSL.P#S#SDT" OrderNumber="86" Mandatory="No" Role="Subject-Level Period, Subperiod, and Phase Timing Variables" val:Core="Permissible"/>
                <ItemRef ItemOID="IT.ADSL.P#S#STM" OrderNumber="87" Mandatory="No" Role="Subject-Level Period, Subperiod, and Phase Timing Variables" val:Core="Permissible"/>
                <ItemRef ItemOID="IT.ADSL.P#S#SDM" OrderNumber="88" Mandatory="No" Role="Subject-Level Period, Subperiod, and Phase Timing Variables" val:Core="Permissible"/>
                <ItemRef ItemOID="IT.ADSL.P#S#SDF" OrderNumber="89" Mandatory="No" Role="Subject-Level Period, Subperiod, and Phase Timing Variables" val:Core="Conditional"/>
                <ItemRef ItemOID="IT.ADSL.P#S#STF" OrderNumber="90" Mandatory="No" Role="Subject-Level Period, Subperiod, and Phase Timing Variables" val:Core="Conditional"/>
                <ItemRef ItemOID="IT.ADSL.P#S#EDT" OrderNumber="91" Mandatory="No" Role="Subject-Level Period, Subperiod, and Phase Timing Variables" val:Core="Permissible"/>
                <ItemRef ItemOID="IT.ADSL.P#S#ETM" OrderNumber="92" Mandatory="No" Role="Subject-Level Period, Subperiod, and Phase Timing Variables" val:Core="Permissible"/>
                <ItemRef ItemOID="IT.ADSL.P#S#EDM" OrderNumber="93" Mandatory="No" Role="Subject-Level Period, Subperiod, and Phase Timing Variables" val:Core="Permissible"/>
                <ItemRef ItemOID="IT.ADSL.P#S#EDF" OrderNumber="94" Mandatory="No" Role="Subject-Level Period, Subperiod, and Phase Timing Variables" val:Core="Conditional"/>
                <ItemRef ItemOID="IT.ADSL.P#S#ETF" OrderNumber="95" Mandatory="No" Role="Subject-Level Period, Subperiod, and Phase Timing Variables" val:Core="Conditional"/>
                <ItemRef ItemOID="IT.ADSL.APHASE#" OrderNumber="96" Mandatory="No" Role="Subject-Level Period, Subperiod, and Phase Timing Variables" val:Core="Permissible"/>
                <ItemRef ItemOID="IT.ADSL.PH#SDT" OrderNumber="97" Mandatory="No" Role="Subject-Level Period, Subperiod, and Phase Timing Variables" val:Core="Permissible"/>
                <ItemRef ItemOID="IT.ADSL.PH#STM" OrderNumber="98" Mandatory="No" Role="Subject-Level Period, Subperiod, and Phase Timing Variables" val:Core="Permissible"/>
                <ItemRef ItemOID="IT.ADSL.PH#SDTM" OrderNumber="99" Mandatory="No" Role="Subject-Level Period, Subperiod, and Phase Timing Variables" val:Core="Permissible"/>
                <ItemRef ItemOID="IT.ADSL.PH#SDTF" OrderNumber="100" Mandatory="No" Role="Subject-Level Period, Subperiod, and Phase Timing Variables" val:Core="Conditional"/>
                <ItemRef ItemOID="IT.ADSL.PH#STMF" OrderNumber="101" Mandatory="No" Role="Subject-Level Period, Subperiod, and Phase Timing Variables" val:Core="Conditional"/>
                <ItemRef ItemOID="IT.ADSL.PH#EDT" OrderNumber="102" Mandatory="No" Role="Subject-Level Period, Subperiod, and Phase Timing Variables" val:Core="Permissible"/>
                <ItemRef ItemOID="IT.ADSL.PH#ETM" OrderNumber="103" Mandatory="No" Role="Subject-Level Period, Subperiod, and Phase Timing Variables" val:Core="Permissible"/>
                <ItemRef ItemOID="IT.ADSL.PH#EDTM" OrderNumber="104" Mandatory="No" Role="Subject-Level Period, Subperiod, and Phase Timing Variables" val:Core="Permissible"/>
                <ItemRef ItemOID="IT.ADSL.PH#EDTF" OrderNumber="105" Mandatory="No" Role="Subject-Level Period, Subperiod, and Phase Timing Variables" val:Core="Conditional"/>
                <ItemRef ItemOID="IT.ADSL.PH#ETMF" OrderNumber="106" Mandatory="No" Role="Subject-Level Period, Subperiod, and Phase Timing Variables" val:Core="Conditional"/>
                <ItemRef ItemOID="IT.ADSL.EOSSTT" OrderNumber="107" Mandatory="No" Role="ADSL Subject-Level Trial Experience Variables" val:Core="Permissible"/>
                <ItemRef ItemOID="IT.ADSL.EOSDT" OrderNumber="108" Mandatory="No" Role="ADSL Subject-Level Trial Experience Variables" val:Core="Permissible"/>
                <ItemRef ItemOID="IT.ADSL.DCSREAS" OrderNumber="109" Mandatory="No" Role="ADSL Subject-Level Trial Experience Variables" val:Core="Permissible"/>
                <ItemRef ItemOID="IT.ADSL.DCSREASP" OrderNumber="110" Mandatory="No" Role="ADSL Subject-Level Trial Experience Variables" val:Core="Permissible"/>
                <ItemRef ItemOID="IT.ADSL.EOTSTT" OrderNumber="111" Mandatory="No" Role="ADSL Subject-Level Trial Experience Variables" val:Core="Permissible"/>
                <ItemRef ItemOID="IT.ADSL.DCTREAS" OrderNumber="112" Mandatory="No" Role="ADSL Subject-Level Trial Experience Variables" val:Core="Permissible"/>
                <ItemRef ItemOID="IT.ADSL.DCTREASP" OrderNumber="113" Mandatory="No" Role="ADSL Subject-Level Trial Experience Variables" val:Core="Permissible"/>
                <ItemRef ItemOID="IT.ADSL.EOT#STT" OrderNumber="114" Mandatory="No" Role="ADSL Subject-Level Trial Experience Variables" val:Core="Permissible"/>
                <ItemRef ItemOID="IT.ADSL.DCT#RS" OrderNumber="115" Mandatory="No" Role="ADSL Subject-Level Trial Experience Variables" val:Core="Permissible"/>
                <ItemRef ItemOID="IT.ADSL.DCT#RSP" OrderNumber="116" Mandatory="No" Role="ADSL Subject-Level Trial Experience Variables" val:Core="Permissible"/>
                <ItemRef ItemOID="IT.ADSL.EOP#STT" OrderNumber="117" Mandatory="No" Role="ADSL Subject-Level Trial Experience Variables" val:Core="Permissible"/>
                <ItemRef ItemOID="IT.ADSL.DCP#RS" OrderNumber="118" Mandatory="No" Role="ADSL Subject-Level Trial Experience Variables" val:Core="Permissible"/>
                <ItemRef ItemOID="IT.ADSL.DCP#RSP" OrderNumber="119" Mandatory="No" Role="ADSL Subject-Level Trial Experience Variables" val:Core="Permissible"/>
                <ItemRef ItemOID="IT.ADSL.RFICDT" OrderNumber="120" Mandatory="No" Role="ADSL Subject-Level Trial Experience Variables" val:Core="Permissible"/>
                <ItemRef ItemOID="IT.ADSL.ENRLDT" OrderNumber="121" Mandatory="No" Role="ADSL Subject-Level Trial Experience Variables" val:Core="Permissible"/>
                <ItemRef ItemOID="IT.ADSL.RANDDT" OrderNumber="122" Mandatory="No" Role="ADSL Subject-Level Trial Experience Variables" val:Core="Conditional"/>
                <ItemRef ItemOID="IT.ADSL.RFIC#DT" OrderNumber="123" Mandatory="No" Role="ADSL Subject-Level Trial Experience Variables" val:Core="Permissible"/>
                <ItemRef ItemOID="IT.ADSL.ENRL#DT" OrderNumber="124" Mandatory="No" Role="ADSL Subject-Level Trial Experience Variables" val:Core="Permissible"/>
                <ItemRef ItemOID="IT.ADSL.RAND#DT" OrderNumber="125" Mandatory="No" Role="ADSL Subject-Level Trial Experience Variables" val:Core="Permissible"/>
                <ItemRef ItemOID="IT.ADSL.LSTALVDT" OrderNumber="126" Mandatory="No" Role="ADSL Subject-Level Trial Experience Variables" val:Core="Permissible"/>
                <ItemRef ItemOID="IT.ADSL.TRCMP" OrderNumber="127" Mandatory="No" Role="ADSL Subject-Level Trial Experience Variables" val:Core="Permissible"/>
                <ItemRef ItemOID="IT.ADSL.TRCMPG#" OrderNumber="128" Mandatory="No" Role="ADSL Subject-Level Trial Experience Variables" val:Core="Permissible"/>
                <ItemRef ItemOID="IT.ADSL.TRCMPG#N" OrderNumber="129" Mandatory="No" Role="ADSL Subject-Level Trial Experience Variables" val:Core="Permissible"/>
                <ItemRef ItemOID="IT.ADSL.TR#DURD" OrderNumber="130" Mandatory="No" Role="ADSL Subject-Level Trial Experience Variables" val:Core="Permissible"/>
                <ItemRef ItemOID="IT.ADSL.TR#DURM" OrderNumber="131" Mandatory="No" Role="ADSL Subject-Level Trial Experience Variables" val:Core="Permissible"/>
                <ItemRef ItemOID="IT.ADSL.TR#DURY" OrderNumber="132" Mandatory="No" Role="ADSL Subject-Level Trial Experience Variables" val:Core="Permissible"/>
                <ItemRef ItemOID="IT.ADSL.TRTDURD" OrderNumber="133" Mandatory="No" Role="ADSL Subject-Level Trial Experience Variables" val:Core="Permissible"/>
                <ItemRef ItemOID="IT.ADSL.TRTDURM" OrderNumber="134" Mandatory="No" Role="ADSL Subject-Level Trial Experience Variables" val:Core="Permissible"/>
                <ItemRef ItemOID="IT.ADSL.TRTDURY" OrderNumber="135" Mandatory="No" Role="ADSL Subject-Level Trial Experience Variables" val:Core="Permissible"/>
                <ItemRef ItemOID="IT.ADSL.DTHDT" OrderNumber="136" Mandatory="No" Role="ADSL Subject-Level Trial Experience Variables" val:Core="Permissible"/>
                <ItemRef ItemOID="IT.ADSL.DTHDTF" OrderNumber="137" Mandatory="No" Role="ADSL Subject-Level Trial Experience Variables" val:Core="Conditional"/>
                <ItemRef ItemOID="IT.ADSL.DTHCAUS" OrderNumber="138" Mandatory="No" Role="ADSL Subject-Level Trial Experience Variables" val:Core="Permissible"/>
                <ItemRef ItemOID="IT.ADSL.DTHCAUSN" OrderNumber="139" Mandatory="No" Role="ADSL Subject-Level Trial Experience Variables" val:Core="Permissible"/>
                <ItemRef ItemOID="IT.ADSL.DTHCGR#" OrderNumber="140" Mandatory="No" Role="ADSL Subject-Level Trial Experience Variables" val:Core="Permissible"/>
                <ItemRef ItemOID="IT.ADSL.DTHCGR#N" OrderNumber="141" Mandatory="No" Role="ADSL Subject-Level Trial Experience Variables" val:Core="Permissible"/>
                <ItemRef ItemOID="IT.ADSL.STRATAR" OrderNumber="142" Mandatory="No" Role="ADSL Stratification Variables" val:Core="Permissible"/>
                <ItemRef ItemOID="IT.ADSL.STRATARN" OrderNumber="143" Mandatory="No" Role="ADSL Stratification Variables" val:Core="Permissible"/>
                <ItemRef ItemOID="IT.ADSL.STRATAV" OrderNumber="144" Mandatory="No" Role="ADSL Stratification Variables" val:Core="Permissible"/>
                <ItemRef ItemOID="IT.ADSL.STRATAVN" OrderNumber="145" Mandatory="No" Role="ADSL Stratification Variables" val:Core="Permissible"/>
                <ItemRef ItemOID="IT.ADSL.STRAT#D" OrderNumber="146" Mandatory="No" Role="ADSL Stratification Variables" val:Core="Permissible"/>
                <ItemRef ItemOID="IT.ADSL.STRAT#R" OrderNumber="147" Mandatory="No" Role="ADSL Stratification Variables" val:Core="Permissible"/>
                <ItemRef ItemOID="IT.ADSL.STRAT#RN" OrderNumber="148" Mandatory="No" Role="ADSL Stratification Variables" val:Core="Permissible"/>
                <ItemRef ItemOID="IT.ADSL.STRAT#V" OrderNumber="149" Mandatory="No" Role="ADSL Stratification Variables" val:Core="Permissible"/>
                <ItemRef ItemOID="IT.ADSL.STRAT#VN" OrderNumber="150" Mandatory="No" Role="ADSL Stratification Variables" val:Core="Permissible"/>
                <ItemRef ItemOID="IT.ADSL.*" OrderNumber="151" Mandatory="No"/>
                <ItemRef ItemOID="IT.ADSL.*DTF" OrderNumber="152" Mandatory="No" Role="Suffixes for User-Defined Timing Variables in BDS Datasets" val:Core="Conditional"/>
                <ItemRef ItemOID="IT.ADSL.*TMF" OrderNumber="153" Mandatory="No" Role="Suffixes for User-Defined Timing Variables in BDS Datasets" val:Core="Conditional"/>
                <def:leaf ID="Location.ADSL" xlink:href="adsl.xpt">
                    <def:title>adsl.xpt</def:title>
                </def:leaf>
                <val:ValidationRuleRef RuleID="AD0005B" Active="Yes"/>
                <val:ValidationRuleRef RuleID="AD0006B" Active="Yes"/>
                <val:ValidationRuleRef RuleID="AD0007" Active="Yes"/>
                <val:ValidationRuleRef RuleID="AD0010" Active="Yes"/>
                <val:ValidationRuleRef RuleID="AD0011" Active="Yes"/>
                <val:ValidationRuleRef RuleID="AD0012" Active="Yes"/>
                <val:ValidationRuleRef RuleID="AD0013" Active="Yes"/>
                <val:ValidationRuleRef RuleID="AD0018" Active="Yes"/>
                <val:ValidationRuleRef RuleID="AD0019" Active="Yes"/>
                <val:ValidationRuleRef RuleID="AD0026" Active="Yes"/>
                <val:ValidationRuleRef RuleID="AD0037B" Active="Yes"/>
                <val:ValidationRuleRef RuleID="AD0038B" Active="Yes"/>
                <val:ValidationRuleRef RuleID="AD0041" Active="Yes"/>
                <val:ValidationRuleRef RuleID="AD0041A" Active="Yes"/>
                <val:ValidationRuleRef RuleID="AD0042" Active="Yes"/>
                <val:ValidationRuleRef RuleID="AD0042A" Active="Yes"/>
                <val:ValidationRuleRef RuleID="AD0043" Active="Yes"/>
                <val:ValidationRuleRef RuleID="AD0043A" Active="Yes"/>
                <val:ValidationRuleRef RuleID="AD0044" Active="Yes"/>
                <val:ValidationRuleRef RuleID="AD0045" Active="Yes"/>
                <val:ValidationRuleRef RuleID="AD0046" Active="Yes"/>
                <val:ValidationRuleRef RuleID="AD0047" Active="Yes"/>
                <val:ValidationRuleRef RuleID="AD0048" Active="Yes"/>
                <val:ValidationRuleRef RuleID="AD0053" Active="Yes"/>
                <val:ValidationRuleRef RuleID="AD0054" Active="Yes"/>
                <val:ValidationRuleRef RuleID="AD0058" Active="Yes"/>
                <val:ValidationRuleRef RuleID="AD0059" Active="Yes"/>
                <val:ValidationRuleRef RuleID="AD0060" Active="Yes"/>
                <val:ValidationRuleRef RuleID="AD0064" Active="Yes"/>
                <val:ValidationRuleRef RuleID="AD0066" Active="Yes"/>
                <val:ValidationRuleRef RuleID="AD0070" Active="Yes"/>
                <val:ValidationRuleRef RuleID="AD0075" Active="Yes"/>
                <val:ValidationRuleRef RuleID="AD0076B" Active="Yes"/>
                <val:ValidationRuleRef RuleID="AD0077B" Active="Yes"/>
                <val:ValidationRuleRef RuleID="AD0078" Active="Yes"/>
                <val:ValidationRuleRef RuleID="AD0079" Active="Yes"/>
                <val:ValidationRuleRef RuleID="AD0080" Active="Yes"/>
                <val:ValidationRuleRef RuleID="AD0084" Active="Yes"/>
                <val:ValidationRuleRef RuleID="AD0121" Active="Yes"/>
                <val:ValidationRuleRef RuleID="AD0122" Active="Yes"/>
                <val:ValidationRuleRef RuleID="AD0196" Active="Yes"/>
                <val:ValidationRuleRef RuleID="AD0200" Active="Yes"/>
                <val:ValidationRuleRef RuleID="AD0204" Active="Yes"/>
                <val:ValidationRuleRef RuleID="AD0205" Active="Yes"/>
                <val:ValidationRuleRef RuleID="AD0206" Active="Yes"/>
                <val:ValidationRuleRef RuleID="AD0207" Active="Yes"/>
                <val:ValidationRuleRef RuleID="AD0208" Active="Yes"/>
                <val:ValidationRuleRef RuleID="AD0209" Active="Yes"/>
                <val:ValidationRuleRef RuleID="AD0210" Active="Yes"/>
                <val:ValidationRuleRef RuleID="AD0227B" Active="Yes"/>
                <val:ValidationRuleRef RuleID="AD0228B" Active="Yes"/>
                <val:ValidationRuleRef RuleID="AD0229B" Active="Yes"/>
                <val:ValidationRuleRef RuleID="AD0230B" Active="Yes"/>
                <val:ValidationRuleRef RuleID="AD0231" Active="Yes"/>
                <val:ValidationRuleRef RuleID="AD0232B" Active="Yes"/>
                <val:ValidationRuleRef RuleID="AD0233" Active="Yes"/>
                <val:ValidationRuleRef RuleID="AD0234" Active="Yes"/>
                <val:ValidationRuleRef RuleID="AD0235B" Active="Yes"/>
                <val:ValidationRuleRef RuleID="AD0236B" Active="Yes"/>
                <val:ValidationRuleRef RuleID="AD0239A" Active="Yes"/>
                <val:ValidationRuleRef RuleID="AD0242B" Active="Yes"/>
                <val:ValidationRuleRef RuleID="AD0243B" Active="Yes"/>
                <val:ValidationRuleRef RuleID="AD0252" Active="Yes"/>
                <val:ValidationRuleRef RuleID="AD0320" Active="Yes"/>
                <val:ValidationRuleRef RuleID="AD0355" Active="Yes"/>
                <val:ValidationRuleRef RuleID="AD0356" Active="Yes"/>
                <val:ValidationRuleRef RuleID="AD0359" Active="Yes"/>
                <val:ValidationRuleRef RuleID="AD0360" Active="Yes"/>
                <val:ValidationRuleRef RuleID="AD0361" Active="Yes"/>
                <val:ValidationRuleRef RuleID="AD0362" Active="Yes"/>
                <val:ValidationRuleRef RuleID="AD0366" Active="Yes"/>
                <val:ValidationRuleRef RuleID="AD0366A" Active="Yes"/>
                <val:ValidationRuleRef RuleID="AD0366B" Active="Yes"/>
                <val:ValidationRuleRef RuleID="AD0367" Active="Yes"/>
                <val:ValidationRuleRef RuleID="AD0369" Active="Yes"/>
                <val:ValidationRuleRef RuleID="AD0370" Active="Yes"/>
                <val:ValidationRuleRef RuleID="AD0376" Active="Yes"/>
                <val:ValidationRuleRef RuleID="AD0468" Active="Yes"/>
                <val:ValidationRuleRef RuleID="AD0469" Active="Yes"/>
                <val:ValidationRuleRef RuleID="AD0472" Active="Yes"/>
                <val:ValidationRuleRef RuleID="AD0473" Active="Yes"/>
                <val:ValidationRuleRef RuleID="AD0476" Active="Yes"/>
                <val:ValidationRuleRef RuleID="AD0477" Active="Yes"/>
                <val:ValidationRuleRef RuleID="AD0480" Active="Yes"/>
                <val:ValidationRuleRef RuleID="AD0481" Active="Yes"/>
                <val:ValidationRuleRef RuleID="AD0503" Active="Yes"/>
                <val:ValidationRuleRef RuleID="AD0504" Active="Yes"/>
                <val:ValidationRuleRef RuleID="AD0505" Active="Yes"/>
                <val:ValidationRuleRef RuleID="AD0507" Active="Yes"/>
                <val:ValidationRuleRef RuleID="AD0508" Active="Yes"/>
                <val:ValidationRuleRef RuleID="AD0509" Active="Yes"/>
                <val:ValidationRuleRef RuleID="AD0510" Active="Yes"/>
                <val:ValidationRuleRef RuleID="AD0511" Active="Yes"/>
                <val:ValidationRuleRef RuleID="AD0513" Active="Yes"/>
                <val:ValidationRuleRef RuleID="AD0514" Active="Yes"/>
                <val:ValidationRuleRef RuleID="AD0515" Active="Yes"/>
                <val:ValidationRuleRef RuleID="AD0516" Active="Yes"/>
                <val:ValidationRuleRef RuleID="AD0517" Active="Yes"/>
                <val:ValidationRuleRef RuleID="AD0519" Active="Yes"/>
                <val:ValidationRuleRef RuleID="AD0520" Active="Yes"/>
                <val:ValidationRuleRef RuleID="AD0570" Active="Yes"/>
                <val:ValidationRuleRef RuleID="AD0616" Active="Yes"/>
                <val:ValidationRuleRef RuleID="AD0617" Active="Yes"/>
                <val:ValidationRuleRef RuleID="AD0792" Active="Yes"/>
                <val:ValidationRuleRef RuleID="AD0793" Active="Yes"/>
                <val:ValidationRuleRef RuleID="AD0794" Active="Yes"/>
                <val:ValidationRuleRef RuleID="AD1011" Active="Yes"/>
                <val:ValidationRuleRef RuleID="AD1012A" Active="Yes"/>
                <val:ValidationRuleRef RuleID="AD1019" Active="Yes"/>
                <val:ValidationRuleRef RuleID="CT2001" Active="Yes"/>
                <val:ValidationRuleRef RuleID="CT2002" Active="Yes"/>
                <val:ValidationRuleRef RuleID="CT2003" Active="Yes"/>
                <val:ValidationRuleRef RuleID="CT2004" Active="Yes"/>
                <val:ValidationRuleRef RuleID="CT2005" Active="Yes"/>
                <val:ValidationRuleRef RuleID="CT2006" Active="Yes"/>
                <val:ValidationRuleRef RuleID="SD0001" Active="Yes"/>
                <val:ValidationRuleRef RuleID="SD0037" Active="Yes"/>
                <val:ValidationRuleRef RuleID="SD0054" Active="Yes"/>
                <val:ValidationRuleRef RuleID="SD0059" Active="Yes"/>
                <val:ValidationRuleRef RuleID="SD0060" Active="Yes"/>
                <val:ValidationRuleRef RuleID="SD0062" Active="Yes"/>
                <val:ValidationRuleRef RuleID="SD1063" Active="Yes"/>
                <val:ValidationRuleRef RuleID="SD1071" Active="Yes"/>
                <val:ValidationRuleRef RuleID="SD1152" Active="Yes"/>
                <val:ValidationRuleRef RuleID="SD1228" Active="Yes"/>
                <val:ValidationRuleRef RuleID="SD1229" Active="Yes"/>
                <val:ValidationRuleRef RuleID="SD1230" Active="Yes"/>
                <val:ValidationRuleRef RuleID="SD1231" Active="Yes"/>
                <val:ValidationRuleRef RuleID="SD1324" Active="Yes"/>
                <val:ValidationRuleRef RuleID="SD1325" Active="Yes"/>
                <val:ValidationRuleRef RuleID="SD1474" Active="Yes"/>
                <val:ValidationRuleRef RuleID="SD1475" Active="Yes"/>
            </ItemGroupDef>
            <ItemGroupDef OID="IG.ADDL" Name="ADDL" Repeating="No" IsReferenceData="No" Purpose="Analysis" def:Structure="One record per device per subject" def:Class="DEVICE LEVEL ANALYSIS DATASET" def:ArchiveLocationID="Location.ADDL">
                <Description>
                    <TranslatedText xml:lang="en">Device-level Analysis Dataset</TranslatedText>
                </Description>
                <ItemRef ItemOID="IT.ADDL.STUDYID" OrderNumber="1" Mandatory="Yes" KeySequence="1" Role="ADDL Identifier Variables" val:Core="Required"/>
                <ItemRef ItemOID="IT.ADDL.SPDEVID" OrderNumber="2" Mandatory="Yes" KeySequence="3" Role="ADDL Identifier Variables" val:Core="Required"/>
                <ItemRef ItemOID="IT.ADDL.USUBJID" OrderNumber="3" Mandatory="No" KeySequence="2" Role="ADDL Identifier Variables" val:Core="Conditional"/>
                <ItemRef ItemOID="IT.ADDL.SUBJID" OrderNumber="4" Mandatory="No" Role="ADDL Identifier Variables" val:Core="Conditional"/>
                <ItemRef ItemOID="IT.ADDL.DEVGR#" OrderNumber="5" Mandatory="No" Role="ADDL Device Grouping Variables" val:Core="Permissible"/>
                <ItemRef ItemOID="IT.ADDL.DEVGR#N" OrderNumber="6" Mandatory="No" Role="ADDL Device Grouping Variables" val:Core="Permissible"/>
                <ItemRef ItemOID="IT.ADDL.DEVTYG#" OrderNumber="7" Mandatory="No" Role="ADDL Device Grouping Variables" val:Core="Permissible"/>
                <ItemRef ItemOID="IT.ADDL.DEVTYG#N" OrderNumber="8" Mandatory="No" Role="ADDL Device Grouping Variables" val:Core="Permissible"/>
                <ItemRef ItemOID="IT.ADDL.MODELG#" OrderNumber="9" Mandatory="No" Role="ADDL Device Grouping Variables" val:Core="Permissible"/>
                <ItemRef ItemOID="IT.ADDL.MODELG#N" OrderNumber="10" Mandatory="No" Role="ADDL Device Grouping Variables" val:Core="Permissible"/>
                <ItemRef ItemOID="IT.ADDL.SITEID" OrderNumber="11" Mandatory="Yes" Role="ADDL Identifier Variables" val:Core="Required"/>
                <ItemRef ItemOID="IT.ADDL.SITEGR#" OrderNumber="12" Mandatory="No" Role="ADDL Identifier Variables" val:Core="Permissible"/>
                <ItemRef ItemOID="IT.ADDL.SITEGR#N" OrderNumber="13" Mandatory="No" Role="ADDL Identifier Variables" val:Core="Permissible"/>
                <ItemRef ItemOID="IT.ADDL.REGION#" OrderNumber="14" Mandatory="No" Role="ADDL Identifier Variables" val:Core="Permissible"/>
                <ItemRef ItemOID="IT.ADDL.REGION#N" OrderNumber="15" Mandatory="No" Role="ADDL Identifier Variables" val:Core="Permissible"/>
                <ItemRef ItemOID="IT.ADDL.AGE" OrderNumber="16" Mandatory="Yes" Role="ADDL Subject Demographics Variables" val:Core="Required"/>
                <ItemRef ItemOID="IT.ADDL.AGEU" OrderNumber="17" Mandatory="Yes" Role="ADDL Subject Demographics Variables" val:Core="Required"/>
                <ItemRef ItemOID="IT.ADDL.AGEGR#" OrderNumber="18" Mandatory="No" Role="ADDL Subject Demographics Variables" val:Core="Permissible"/>
                <ItemRef ItemOID="IT.ADDL.AGEGR#N" OrderNumber="19" Mandatory="No" Role="ADDL Subject Demographics Variables" val:Core="Permissible"/>
                <ItemRef ItemOID="IT.ADDL.AGEDST" OrderNumber="20" Mandatory="No" Role="ADDL Device-based Demographic Variables" val:Core="Permissible"/>
                <ItemRef ItemOID="IT.ADDL.AGEDSTU" OrderNumber="21" Mandatory="No" Role="ADDL Device-based Demographic Variables" val:Core="Conditional"/>
                <ItemRef ItemOID="IT.ADDL.AAGE" OrderNumber="22" Mandatory="No" Role="ADDL Subject Demographics Variables" val:Core="Conditional"/>
                <ItemRef ItemOID="IT.ADDL.SEX" OrderNumber="23" Mandatory="Yes" Role="ADDL Subject Demographics Variables" val:Core="Required"/>
                <ItemRef ItemOID="IT.ADDL.RACE" OrderNumber="24" Mandatory="Yes" Role="ADDL Subject Demographics Variables" val:Core="Required"/>
                <ItemRef ItemOID="IT.ADDL.RACEGR#" OrderNumber="25" Mandatory="No" Role="ADDL Subject Demographics Variables" val:Core="Permissible"/>
                <ItemRef ItemOID="IT.ADDL.RACEGR#N" OrderNumber="26" Mandatory="No" Role="ADDL Subject Demographics Variables" val:Core="Permissible"/>
                <ItemRef ItemOID="IT.ADDL.FASFL" OrderNumber="27" Mandatory="No" Role="ADDL Population Indicator Variables" val:Core="Conditional"/>
                <ItemRef ItemOID="IT.ADDL.FASFN" OrderNumber="28" Mandatory="No" Role="Population Flag" val:Core="Permissible"/>
                <ItemRef ItemOID="IT.ADDL.SAFFL" OrderNumber="29" Mandatory="No" Role="ADDL Population Indicator Variables" val:Core="Conditional"/>
                <ItemRef ItemOID="IT.ADDL.SAFFN" OrderNumber="30" Mandatory="No" Role="Population Flag" val:Core="Permissible"/>
                <ItemRef ItemOID="IT.ADDL.ITTFL" OrderNumber="31" Mandatory="No" Role="ADDL Population Indicator Variables" val:Core="Conditional"/>
                <ItemRef ItemOID="IT.ADDL.ITTFN" OrderNumber="32" Mandatory="No" Role="Population Flag" val:Core="Permissible"/>
                <ItemRef ItemOID="IT.ADDL.PPROTFL" OrderNumber="33" Mandatory="No" Role="ADDL Population Indicator Variables" val:Core="Conditional"/>
                <ItemRef ItemOID="IT.ADDL.PPROTFN" OrderNumber="34" Mandatory="No" Role="Population Flag" val:Core="Permissible"/>
                <ItemRef ItemOID="IT.ADDL.COMPLFL" OrderNumber="35" Mandatory="No" Role="ADDL Population Indicator Variables" val:Core="Conditional"/>
                <ItemRef ItemOID="IT.ADDL.COMPLFN" OrderNumber="36" Mandatory="No" Role="Population Flag" val:Core="Permissible"/>
                <ItemRef ItemOID="IT.ADDL.RANDFL" OrderNumber="37" Mandatory="No" Role="ADDL Population Indicator Variables" val:Core="Conditional"/>
                <ItemRef ItemOID="IT.ADDL.RANDFN" OrderNumber="38" Mandatory="No" Role="Population Flag" val:Core="Permissible"/>
                <ItemRef ItemOID="IT.ADDL.ENRLFL" OrderNumber="39" Mandatory="No" Role="ADDL Population Indicator Variables" val:Core="Conditional"/>
                <ItemRef ItemOID="IT.ADDL.ENRLFN" OrderNumber="40" Mandatory="No" Role="Population Flag" val:Core="Permissible"/>
                <ItemRef ItemOID="IT.ADDL.ARM" OrderNumber="41" Mandatory="Yes" Role="ADDL Treatment Variables" val:Core="Required"/>
                <ItemRef ItemOID="IT.ADDL.ACTARM" OrderNumber="42" Mandatory="No" Role="ADDL Treatment Variables" val:Core="Permissible"/>
                <ItemRef ItemOID="IT.ADDL.*FL" OrderNumber="43" Mandatory="No" Role="Flag" val:Core="Permissible"/>
                <ItemRef ItemOID="IT.ADDL.TRT#P" OrderNumber="44" Mandatory="No" Role="ADDL Treatment Variables" val:Core="Permissible"/>
                <ItemRef ItemOID="IT.ADDL.TRT#PN" OrderNumber="45" Mandatory="No" Role="ADDL Treatment Variables" val:Core="Permissible"/>
                <ItemRef ItemOID="IT.ADDL.TRT#A" OrderNumber="46" Mandatory="No" Role="ADDL Treatment Variables" val:Core="Conditional"/>
                <ItemRef ItemOID="IT.ADDL.TRT#AN" OrderNumber="47" Mandatory="No" Role="ADDL Treatment Variables" val:Core="Permissible"/>
                <ItemRef ItemOID="IT.ADDL.TRTSEQP" OrderNumber="48" Mandatory="No" Role="ADDL Treatment Variables" val:Core="Conditional"/>
                <ItemRef ItemOID="IT.ADDL.TRTSEQPN" OrderNumber="49" Mandatory="No" Role="ADDL Treatment Variables" val:Core="Permissible"/>
                <ItemRef ItemOID="IT.ADDL.TRTSEQA" OrderNumber="50" Mandatory="No" Role="ADDL Treatment Variables" val:Core="Conditional"/>
                <ItemRef ItemOID="IT.ADDL.TRTSEQAN" OrderNumber="51" Mandatory="No" Role="ADDL Treatment Variables" val:Core="Permissible"/>
                <ItemRef ItemOID="IT.ADDL.TR#PG#" OrderNumber="52" Mandatory="No" Role="ADDL Treatment Variables" val:Core="Permissible"/>
                <ItemRef ItemOID="IT.ADDL.TR#PG#N" OrderNumber="53" Mandatory="No" Role="ADDL Treatment Variables" val:Core="Permissible"/>
                <ItemRef ItemOID="IT.ADDL.TR#AG#" OrderNumber="54" Mandatory="No" Role="ADDL Treatment Variables" val:Core="Conditional"/>
                <ItemRef ItemOID="IT.ADDL.TR#AG#N" OrderNumber="55" Mandatory="No" Role="ADDL Treatment Variables" val:Core="Permissible"/>
                <ItemRef ItemOID="IT.ADDL.TSEQPG#" OrderNumber="56" Mandatory="No" Role="ADDL Treatment Variables" val:Core="Permissible"/>
                <ItemRef ItemOID="IT.ADDL.TSEQPG#N" OrderNumber="57" Mandatory="No" Role="ADDL Treatment Variables" val:Core="Permissible"/>
                <ItemRef ItemOID="IT.ADDL.TSEQAG#" OrderNumber="58" Mandatory="No" Role="ADDL Treatment Variables" val:Core="Conditional"/>
                <ItemRef ItemOID="IT.ADDL.TSEQAG#N" OrderNumber="59" Mandatory="No" Role="ADDL Treatment Variables" val:Core="Permissible"/>
                <ItemRef ItemOID="IT.ADDL.DOSE#P" OrderNumber="60" Mandatory="No" Role="ADDL Dose Variables" val:Core="Permissible"/>
                <ItemRef ItemOID="IT.ADDL.DOSE#A" OrderNumber="61" Mandatory="No" Role="ADDL Dose Variables" val:Core="Permissible"/>
                <ItemRef ItemOID="IT.ADDL.DOSE#U" OrderNumber="62" Mandatory="No" Role="ADDL Dose Variables" val:Core="Permissible"/>
                <ItemRef ItemOID="IT.ADDL.DEVSDT" OrderNumber="63" Mandatory="Yes" Role="ADDL Timing and Status Flag Variables" val:Core="Required"/>
                <ItemRef ItemOID="IT.ADDL.DEVEDT" OrderNumber="64" Mandatory="Yes" Role="ADDL Timing and Status Flag Variables" val:Core="Required"/>
                <ItemRef ItemOID="IT.ADDL.DEVAFL" OrderNumber="65" Mandatory="No" Role="ADDL Timing and Status Flag Variables" val:Core="Permissible"/>
                <ItemRef ItemOID="IT.ADDL.DEVIPDT" OrderNumber="66" Mandatory="No" Role="ADDL Timing and Status Flag Variables" val:Core="Conditional"/>
                <ItemRef ItemOID="IT.ADDL.DEVXPDT" OrderNumber="67" Mandatory="No" Role="ADDL Timing and Status Flag Variables" val:Core="Conditional"/>
                <ItemRef ItemOID="IT.ADDL.DEVONDT" OrderNumber="68" Mandatory="No" Role="ADDL Timing and Status Flag Variables" val:Core="Conditional"/>
                <ItemRef ItemOID="IT.ADDL.DEVOFDT" OrderNumber="69" Mandatory="No" Role="ADDL Timing and Status Flag Variables" val:Core="Conditional"/>
                <ItemRef ItemOID="IT.ADDL.DEVRPDT" OrderNumber="70" Mandatory="No" Role="ADDL Timing and Status Flag Variables" val:Core="Conditional"/>
                <ItemRef ItemOID="IT.ADDL.DEVMDDT" OrderNumber="71" Mandatory="No" Role="ADDL Timing and Status Flag Variables" val:Core="Conditional"/>
                <ItemRef ItemOID="IT.ADDL.TRTSDT" OrderNumber="72" Mandatory="No" Role="ADDL Treatment Timing Variables" val:Core="Conditional"/>
                <ItemRef ItemOID="IT.ADDL.TRTSTM" OrderNumber="73" Mandatory="No" Role="ADDL Treatment Timing Variables" val:Core="Permissible"/>
                <ItemRef ItemOID="IT.ADDL.TRTSDTM" OrderNumber="74" Mandatory="No" Role="ADDL Treatment Timing Variables" val:Core="Conditional"/>
                <ItemRef ItemOID="IT.ADDL.TRTSDTF" OrderNumber="75" Mandatory="No" Role="ADDL Treatment Timing Variables" val:Core="Conditional"/>
                <ItemRef ItemOID="IT.ADDL.TRTSTMF" OrderNumber="76" Mandatory="No" Role="ADDL Treatment Timing Variables" val:Core="Conditional"/>
                <ItemRef ItemOID="IT.ADDL.TRTEDT" OrderNumber="77" Mandatory="No" Role="ADDL Treatment Timing Variables" val:Core="Conditional"/>
                <ItemRef ItemOID="IT.ADDL.TRTETM" OrderNumber="78" Mandatory="No" Role="ADDL Treatment Timing Variables" val:Core="Permissible"/>
                <ItemRef ItemOID="IT.ADDL.TRTEDTM" OrderNumber="79" Mandatory="No" Role="ADDL Treatment Timing Variables" val:Core="Conditional"/>
                <ItemRef ItemOID="IT.ADDL.TRTEDTF" OrderNumber="80" Mandatory="No" Role="ADDL Treatment Timing Variables" val:Core="Conditional"/>
                <ItemRef ItemOID="IT.ADDL.TRTETMF" OrderNumber="81" Mandatory="No" Role="ADDL Treatment Timing Variables" val:Core="Conditional"/>
                <ItemRef ItemOID="IT.ADDL.TR#SDT" OrderNumber="82" Mandatory="No" Role="ADDL Treatment Timing Variables" val:Core="Conditional"/>
                <ItemRef ItemOID="IT.ADDL.TR#STM" OrderNumber="83" Mandatory="No" Role="ADDL Treatment Timing Variables" val:Core="Conditional"/>
                <ItemRef ItemOID="IT.ADDL.TR#SDTM" OrderNumber="84" Mandatory="No" Role="ADDL Treatment Timing Variables" val:Core="Conditional"/>
                <ItemRef ItemOID="IT.ADDL.TR#SDTF" OrderNumber="85" Mandatory="No" Role="ADDL Treatment Timing Variables" val:Core="Conditional"/>
                <ItemRef ItemOID="IT.ADDL.TR#STMF" OrderNumber="86" Mandatory="No" Role="ADDL Treatment Timing Variables" val:Core="Conditional"/>
                <ItemRef ItemOID="IT.ADDL.TR#EDT" OrderNumber="87" Mandatory="No" Role="ADDL Treatment Timing Variables" val:Core="Conditional"/>
                <ItemRef ItemOID="IT.ADDL.TR#ETM" OrderNumber="88" Mandatory="No" Role="ADDL Treatment Timing Variables" val:Core="Conditional"/>
                <ItemRef ItemOID="IT.ADDL.TR#EDTM" OrderNumber="89" Mandatory="No" Role="ADDL Treatment Timing Variables" val:Core="Conditional"/>
                <ItemRef ItemOID="IT.ADDL.TR#EDTF" OrderNumber="90" Mandatory="No" Role="ADDL Treatment Timing Variables" val:Core="Conditional"/>
                <ItemRef ItemOID="IT.ADDL.TR#ETMF" OrderNumber="91" Mandatory="No" Role="ADDL Treatment Timing Variables" val:Core="Conditional"/>
                <ItemRef ItemOID="IT.ADDL.AP#SDT" OrderNumber="92" Mandatory="No" Role="Subject-Level Period, Subperiod, and Phase Timing Variables" val:Core="Permissible"/>
                <ItemRef ItemOID="IT.ADDL.AP#STM" OrderNumber="93" Mandatory="No" Role="Subject-Level Period, Subperiod, and Phase Timing Variables" val:Core="Permissible"/>
                <ItemRef ItemOID="IT.ADDL.AP#SDTM" OrderNumber="94" Mandatory="No" Role="Subject-Level Period, Subperiod, and Phase Timing Variables" val:Core="Permissible"/>
                <ItemRef ItemOID="IT.ADDL.AP#SDTF" OrderNumber="95" Mandatory="No" Role="Subject-Level Period, Subperiod, and Phase Timing Variables" val:Core="Conditional"/>
                <ItemRef ItemOID="IT.ADDL.AP#STMF" OrderNumber="96" Mandatory="No" Role="Subject-Level Period, Subperiod, and Phase Timing Variables" val:Core="Conditional"/>
                <ItemRef ItemOID="IT.ADDL.AP#EDT" OrderNumber="97" Mandatory="No" Role="Subject-Level Period, Subperiod, and Phase Timing Variables" val:Core="Permissible"/>
                <ItemRef ItemOID="IT.ADDL.AP#ETM" OrderNumber="98" Mandatory="No" Role="Subject-Level Period, Subperiod, and Phase Timing Variables" val:Core="Permissible"/>
                <ItemRef ItemOID="IT.ADDL.AP#EDTM" OrderNumber="99" Mandatory="No" Role="Subject-Level Period, Subperiod, and Phase Timing Variables" val:Core="Permissible"/>
                <ItemRef ItemOID="IT.ADDL.AP#EDTF" OrderNumber="100" Mandatory="No" Role="Subject-Level Period, Subperiod, and Phase Timing Variables" val:Core="Conditional"/>
                <ItemRef ItemOID="IT.ADDL.AP#ETMF" OrderNumber="101" Mandatory="No" Role="Subject-Level Period, Subperiod, and Phase Timing Variables" val:Core="Conditional"/>
                <ItemRef ItemOID="IT.ADDL.P#S#" OrderNumber="102" Mandatory="No" Role="Subject-Level Period, Subperiod, and Phase Timing Variables" val:Core="Permissible"/>
                <ItemRef ItemOID="IT.ADDL.P#S#SDT" OrderNumber="103" Mandatory="No" Role="Subject-Level Period, Subperiod, and Phase Timing Variables" val:Core="Permissible"/>
                <ItemRef ItemOID="IT.ADDL.P#S#STM" OrderNumber="104" Mandatory="No" Role="Subject-Level Period, Subperiod, and Phase Timing Variables" val:Core="Permissible"/>
                <ItemRef ItemOID="IT.ADDL.P#S#SDM" OrderNumber="105" Mandatory="No" Role="Subject-Level Period, Subperiod, and Phase Timing Variables" val:Core="Permissible"/>
                <ItemRef ItemOID="IT.ADDL.P#S#SDF" OrderNumber="106" Mandatory="No" Role="Subject-Level Period, Subperiod, and Phase Timing Variables" val:Core="Conditional"/>
                <ItemRef ItemOID="IT.ADDL.P#S#STF" OrderNumber="107" Mandatory="No" Role="Subject-Level Period, Subperiod, and Phase Timing Variables" val:Core="Conditional"/>
                <ItemRef ItemOID="IT.ADDL.P#S#EDT" OrderNumber="108" Mandatory="No" Role="Subject-Level Period, Subperiod, and Phase Timing Variables" val:Core="Permissible"/>
                <ItemRef ItemOID="IT.ADDL.P#S#ETM" OrderNumber="109" Mandatory="No" Role="Subject-Level Period, Subperiod, and Phase Timing Variables" val:Core="Permissible"/>
                <ItemRef ItemOID="IT.ADDL.P#S#EDM" OrderNumber="110" Mandatory="No" Role="Subject-Level Period, Subperiod, and Phase Timing Variables" val:Core="Permissible"/>
                <ItemRef ItemOID="IT.ADDL.P#S#EDF" OrderNumber="111" Mandatory="No" Role="Subject-Level Period, Subperiod, and Phase Timing Variables" val:Core="Conditional"/>
                <ItemRef ItemOID="IT.ADDL.P#S#ETF" OrderNumber="112" Mandatory="No" Role="Subject-Level Period, Subperiod, and Phase Timing Variables" val:Core="Conditional"/>
                <ItemRef ItemOID="IT.ADDL.APHASE#" OrderNumber="113" Mandatory="No" Role="Subject-Level Period, Subperiod, and Phase Timing Variables" val:Core="Permissible"/>
                <ItemRef ItemOID="IT.ADDL.PH#SDT" OrderNumber="114" Mandatory="No" Role="Subject-Level Period, Subperiod, and Phase Timing Variables" val:Core="Permissible"/>
                <ItemRef ItemOID="IT.ADDL.PH#STM" OrderNumber="115" Mandatory="No" Role="Subject-Level Period, Subperiod, and Phase Timing Variables" val:Core="Permissible"/>
                <ItemRef ItemOID="IT.ADDL.PH#SDTM" OrderNumber="116" Mandatory="No" Role="Subject-Level Period, Subperiod, and Phase Timing Variables" val:Core="Permissible"/>
                <ItemRef ItemOID="IT.ADDL.PH#SDTF" OrderNumber="117" Mandatory="No" Role="Subject-Level Period, Subperiod, and Phase Timing Variables" val:Core="Conditional"/>
                <ItemRef ItemOID="IT.ADDL.PH#STMF" OrderNumber="118" Mandatory="No" Role="Subject-Level Period, Subperiod, and Phase Timing Variables" val:Core="Conditional"/>
                <ItemRef ItemOID="IT.ADDL.PH#EDT" OrderNumber="119" Mandatory="No" Role="Subject-Level Period, Subperiod, and Phase Timing Variables" val:Core="Permissible"/>
                <ItemRef ItemOID="IT.ADDL.PH#ETM" OrderNumber="120" Mandatory="No" Role="Subject-Level Period, Subperiod, and Phase Timing Variables" val:Core="Permissible"/>
                <ItemRef ItemOID="IT.ADDL.PH#EDTM" OrderNumber="121" Mandatory="No" Role="Subject-Level Period, Subperiod, and Phase Timing Variables" val:Core="Permissible"/>
                <ItemRef ItemOID="IT.ADDL.PH#EDTF" OrderNumber="122" Mandatory="No" Role="Subject-Level Period, Subperiod, and Phase Timing Variables" val:Core="Conditional"/>
                <ItemRef ItemOID="IT.ADDL.PH#ETMF" OrderNumber="123" Mandatory="No" Role="Subject-Level Period, Subperiod, and Phase Timing Variables" val:Core="Conditional"/>
                <ItemRef ItemOID="IT.ADDL.EOSSTT" OrderNumber="124" Mandatory="No" Role="ADDL Subject-Level Trial Experience Variables" val:Core="Permissible"/>
                <ItemRef ItemOID="IT.ADDL.EOSDT" OrderNumber="125" Mandatory="No" Role="ADDL Subject-Level Trial Experience Variables" val:Core="Permissible"/>
                <ItemRef ItemOID="IT.ADDL.DCSREAS" OrderNumber="126" Mandatory="No" Role="ADDL Subject-Level Trial Experience Variables" val:Core="Permissible"/>
                <ItemRef ItemOID="IT.ADDL.DCSREASP" OrderNumber="127" Mandatory="No" Role="ADDL Subject-Level Trial Experience Variables" val:Core="Permissible"/>
                <ItemRef ItemOID="IT.ADDL.EOTSTT" OrderNumber="128" Mandatory="No" Role="ADDL Subject-Level Trial Experience Variables" val:Core="Permissible"/>
                <ItemRef ItemOID="IT.ADDL.DCTREAS" OrderNumber="129" Mandatory="No" Role="ADDL Subject-Level Trial Experience Variables" val:Core="Permissible"/>
                <ItemRef ItemOID="IT.ADDL.DCTREASP" OrderNumber="130" Mandatory="No" Role="ADDL Subject-Level Trial Experience Variables" val:Core="Permissible"/>
                <ItemRef ItemOID="IT.ADDL.EOT#STT" OrderNumber="131" Mandatory="No" Role="ADDL Subject-Level Trial Experience Variables" val:Core="Permissible"/>
                <ItemRef ItemOID="IT.ADDL.DCT#RS" OrderNumber="132" Mandatory="No" Role="ADDL Subject-Level Trial Experience Variables" val:Core="Permissible"/>
                <ItemRef ItemOID="IT.ADDL.DCT#RSP" OrderNumber="133" Mandatory="No" Role="ADDL Subject-Level Trial Experience Variables" val:Core="Permissible"/>
                <ItemRef ItemOID="IT.ADDL.EOP#STT" OrderNumber="134" Mandatory="No" Role="ADDL Subject-Level Trial Experience Variables" val:Core="Permissible"/>
                <ItemRef ItemOID="IT.ADDL.DCP#RS" OrderNumber="135" Mandatory="No" Role="ADDL Subject-Level Trial Experience Variables" val:Core="Permissible"/>
                <ItemRef ItemOID="IT.ADDL.DCP#RSP" OrderNumber="136" Mandatory="No" Role="ADDL Subject-Level Trial Experience Variables" val:Core="Permissible"/>
                <ItemRef ItemOID="IT.ADDL.RFICDT" OrderNumber="137" Mandatory="No" Role="ADDL Subject-Level Trial Experience Variables" val:Core="Permissible"/>
                <ItemRef ItemOID="IT.ADDL.ENRLDT" OrderNumber="138" Mandatory="No" Role="ADDL Subject-Level Trial Experience Variables" val:Core="Permissible"/>
                <ItemRef ItemOID="IT.ADDL.RANDDT" OrderNumber="139" Mandatory="No" Role="ADDL Subject-Level Trial Experience Variables" val:Core="Conditional"/>
                <ItemRef ItemOID="IT.ADDL.RFIC#DT" OrderNumber="140" Mandatory="No" Role="ADDL Subject-Level Trial Experience Variables" val:Core="Permissible"/>
                <ItemRef ItemOID="IT.ADDL.ENRL#DT" OrderNumber="141" Mandatory="No" Role="ADDL Subject-Level Trial Experience Variables" val:Core="Permissible"/>
                <ItemRef ItemOID="IT.ADDL.RAND#DT" OrderNumber="142" Mandatory="No" Role="ADDL Subject-Level Trial Experience Variables" val:Core="Permissible"/>
                <ItemRef ItemOID="IT.ADDL.LSTALVDT" OrderNumber="143" Mandatory="No" Role="ADDL Subject-Level Trial Experience Variables" val:Core="Permissible"/>
                <ItemRef ItemOID="IT.ADDL.TRCMP" OrderNumber="144" Mandatory="No" Role="ADDL Subject-Level Trial Experience Variables" val:Core="Permissible"/>
                <ItemRef ItemOID="IT.ADDL.TRCMPG#" OrderNumber="145" Mandatory="No" Role="ADDL Subject-Level Trial Experience Variables" val:Core="Permissible"/>
                <ItemRef ItemOID="IT.ADDL.TRCMPG#N" OrderNumber="146" Mandatory="No" Role="ADDL Subject-Level Trial Experience Variables" val:Core="Permissible"/>
                <ItemRef ItemOID="IT.ADDL.TR#DURD" OrderNumber="147" Mandatory="No" Role="ADDL Subject-Level Trial Experience Variables" val:Core="Permissible"/>
                <ItemRef ItemOID="IT.ADDL.TR#DURM" OrderNumber="148" Mandatory="No" Role="ADDL Subject-Level Trial Experience Variables" val:Core="Permissible"/>
                <ItemRef ItemOID="IT.ADDL.TR#DURY" OrderNumber="149" Mandatory="No" Role="ADDL Subject-Level Trial Experience Variables" val:Core="Permissible"/>
                <ItemRef ItemOID="IT.ADDL.TRTDURD" OrderNumber="150" Mandatory="No" Role="ADDL Subject-Level Trial Experience Variables" val:Core="Permissible"/>
                <ItemRef ItemOID="IT.ADDL.TRTDURM" OrderNumber="151" Mandatory="No" Role="ADDL Subject-Level Trial Experience Variables" val:Core="Permissible"/>
                <ItemRef ItemOID="IT.ADDL.TRTDURY" OrderNumber="152" Mandatory="No" Role="ADDL Subject-Level Trial Experience Variables" val:Core="Permissible"/>
                <ItemRef ItemOID="IT.ADDL.DTHDT" OrderNumber="153" Mandatory="No" Role="ADDL Subject-Level Trial Experience Variables" val:Core="Permissible"/>
                <ItemRef ItemOID="IT.ADDL.DTHDTF" OrderNumber="154" Mandatory="No" Role="ADDL Subject-Level Trial Experience Variables" val:Core="Conditional"/>
                <ItemRef ItemOID="IT.ADDL.DTHCAUS" OrderNumber="155" Mandatory="No" Role="ADDL Subject-Level Trial Experience Variables" val:Core="Permissible"/>
                <ItemRef ItemOID="IT.ADDL.DTHCAUSN" OrderNumber="156" Mandatory="No" Role="ADDL Subject-Level Trial Experience Variables" val:Core="Permissible"/>
                <ItemRef ItemOID="IT.ADDL.DTHCGR#" OrderNumber="157" Mandatory="No" Role="ADDL Subject-Level Trial Experience Variables" val:Core="Permissible"/>
                <ItemRef ItemOID="IT.ADDL.DTHCGR#N" OrderNumber="158" Mandatory="No" Role="ADDL Subject-Level Trial Experience Variables" val:Core="Permissible"/>
                <ItemRef ItemOID="IT.ADDL.STRATAR" OrderNumber="159" Mandatory="No" val:Core="Permissible"/>
                <ItemRef ItemOID="IT.ADDL.STRATARN" OrderNumber="160" Mandatory="No" val:Core="Permissible"/>
                <ItemRef ItemOID="IT.ADDL.STRATAV" OrderNumber="161" Mandatory="No" val:Core="Permissible"/>
                <ItemRef ItemOID="IT.ADDL.STRATAVN" OrderNumber="162" Mandatory="No" val:Core="Permissible"/>
                <ItemRef ItemOID="IT.ADDL.STRAT#D" OrderNumber="163" Mandatory="No" val:Core="Permissible"/>
                <ItemRef ItemOID="IT.ADDL.STRAT#R" OrderNumber="164" Mandatory="No" val:Core="Permissible"/>
                <ItemRef ItemOID="IT.ADDL.STRAT#RN" OrderNumber="165" Mandatory="No" val:Core="Permissible"/>
                <ItemRef ItemOID="IT.ADDL.STRAT#V" OrderNumber="166" Mandatory="No" val:Core="Permissible"/>
                <ItemRef ItemOID="IT.ADDL.STRAT#VN" OrderNumber="167" Mandatory="No" val:Core="Permissible"/>
                <ItemRef ItemOID="IT.ADDL.*" OrderNumber="168" Mandatory="No" Role="Representor of any additional variable"/>
                <ItemRef ItemOID="IT.ADDL.*DTF" OrderNumber="169" Mandatory="No" Role="Suffixes for User-Defined Timing Variables in BDS Datasets" val:Core="Conditional"/>
                <ItemRef ItemOID="IT.ADDL.*TMF" OrderNumber="170" Mandatory="No" Role="Suffixes for User-Defined Timing Variables in BDS Datasets" val:Core="Conditional"/>
                <def:leaf ID="Location.ADDL" xlink:href="addl.xpt">
                    <def:title>addl.xpt</def:title>
                </def:leaf>
                <val:ValidationRuleRef RuleID="AD0005B" Active="Yes"/>
                <val:ValidationRuleRef RuleID="AD0006B" Active="Yes"/>
                <val:ValidationRuleRef RuleID="AD0007" Active="Yes"/>
                <val:ValidationRuleRef RuleID="AD0010" Active="Yes"/>
                <val:ValidationRuleRef RuleID="AD0011" Active="Yes"/>
                <val:ValidationRuleRef RuleID="AD0012" Active="Yes"/>
                <val:ValidationRuleRef RuleID="AD0013" Active="Yes"/>
                <val:ValidationRuleRef RuleID="AD0018" Active="Yes"/>
                <val:ValidationRuleRef RuleID="AD0019" Active="Yes"/>
                <val:ValidationRuleRef RuleID="AD0026" Active="Yes"/>
                <val:ValidationRuleRef RuleID="AD0037B" Active="Yes"/>
                <val:ValidationRuleRef RuleID="AD0038B" Active="Yes"/>
                <val:ValidationRuleRef RuleID="AD0041" Active="Yes"/>
                <val:ValidationRuleRef RuleID="AD0041A" Active="Yes"/>
                <val:ValidationRuleRef RuleID="AD0042" Active="Yes"/>
                <val:ValidationRuleRef RuleID="AD0042A" Active="Yes"/>
                <val:ValidationRuleRef RuleID="AD0043" Active="Yes"/>
                <val:ValidationRuleRef RuleID="AD0043A" Active="Yes"/>
                <val:ValidationRuleRef RuleID="AD0044" Active="Yes"/>
                <val:ValidationRuleRef RuleID="AD0045" Active="Yes"/>
                <val:ValidationRuleRef RuleID="AD0046" Active="Yes"/>
                <val:ValidationRuleRef RuleID="AD0047" Active="Yes"/>
                <val:ValidationRuleRef RuleID="AD0053" Active="Yes"/>
                <val:ValidationRuleRef RuleID="AD0058" Active="Yes"/>
                <val:ValidationRuleRef RuleID="AD0059" Active="Yes"/>
                <val:ValidationRuleRef RuleID="AD0060" Active="Yes"/>
                <val:ValidationRuleRef RuleID="AD0064" Active="Yes"/>
                <val:ValidationRuleRef RuleID="AD0066" Active="Yes"/>
                <val:ValidationRuleRef RuleID="AD0070" Active="Yes"/>
                <val:ValidationRuleRef RuleID="AD0075" Active="Yes"/>
                <val:ValidationRuleRef RuleID="AD0076B" Active="Yes"/>
                <val:ValidationRuleRef RuleID="AD0077B" Active="Yes"/>
                <val:ValidationRuleRef RuleID="AD0078" Active="Yes"/>
                <val:ValidationRuleRef RuleID="AD0079" Active="Yes"/>
                <val:ValidationRuleRef RuleID="AD0080" Active="Yes"/>
                <val:ValidationRuleRef RuleID="AD0084" Active="Yes"/>
                <val:ValidationRuleRef RuleID="AD0121" Active="Yes"/>
                <val:ValidationRuleRef RuleID="AD0122" Active="Yes"/>
                <val:ValidationRuleRef RuleID="AD0196" Active="Yes"/>
                <val:ValidationRuleRef RuleID="AD0200" Active="Yes"/>
                <val:ValidationRuleRef RuleID="AD0227B" Active="Yes"/>
                <val:ValidationRuleRef RuleID="AD0228B" Active="Yes"/>
                <val:ValidationRuleRef RuleID="AD0229B" Active="Yes"/>
                <val:ValidationRuleRef RuleID="AD0230B" Active="Yes"/>
                <val:ValidationRuleRef RuleID="AD0231" Active="Yes"/>
                <val:ValidationRuleRef RuleID="AD0232B" Active="Yes"/>
                <val:ValidationRuleRef RuleID="AD0233" Active="Yes"/>
                <val:ValidationRuleRef RuleID="AD0234" Active="Yes"/>
                <val:ValidationRuleRef RuleID="AD0235B" Active="Yes"/>
                <val:ValidationRuleRef RuleID="AD0236B" Active="Yes"/>
                <val:ValidationRuleRef RuleID="AD0239A" Active="Yes"/>
                <val:ValidationRuleRef RuleID="AD0242B" Active="Yes"/>
                <val:ValidationRuleRef RuleID="AD0243B" Active="Yes"/>
                <val:ValidationRuleRef RuleID="AD0252" Active="Yes"/>
                <val:ValidationRuleRef RuleID="AD0320B" Active="Yes"/>
                <val:ValidationRuleRef RuleID="AD0355" Active="Yes"/>
                <val:ValidationRuleRef RuleID="AD0356" Active="Yes"/>
                <val:ValidationRuleRef RuleID="AD0359" Active="Yes"/>
                <val:ValidationRuleRef RuleID="AD0360" Active="Yes"/>
                <val:ValidationRuleRef RuleID="AD0361" Active="Yes"/>
                <val:ValidationRuleRef RuleID="AD0362" Active="Yes"/>
                <val:ValidationRuleRef RuleID="AD0366" Active="Yes"/>
                <val:ValidationRuleRef RuleID="AD0366A" Active="Yes"/>
                <val:ValidationRuleRef RuleID="AD0366B" Active="Yes"/>
                <val:ValidationRuleRef RuleID="AD0369" Active="Yes"/>
                <val:ValidationRuleRef RuleID="AD0370" Active="Yes"/>
                <val:ValidationRuleRef RuleID="AD0376" Active="Yes"/>
                <val:ValidationRuleRef RuleID="AD0468" Active="Yes"/>
                <val:ValidationRuleRef RuleID="AD0469" Active="Yes"/>
                <val:ValidationRuleRef RuleID="AD0472" Active="Yes"/>
                <val:ValidationRuleRef RuleID="AD0473" Active="Yes"/>
                <val:ValidationRuleRef RuleID="AD0476" Active="Yes"/>
                <val:ValidationRuleRef RuleID="AD0477" Active="Yes"/>
                <val:ValidationRuleRef RuleID="AD0480" Active="Yes"/>
                <val:ValidationRuleRef RuleID="AD0481" Active="Yes"/>
                <val:ValidationRuleRef RuleID="AD0503" Active="Yes"/>
                <val:ValidationRuleRef RuleID="AD0504" Active="Yes"/>
                <val:ValidationRuleRef RuleID="AD0505" Active="Yes"/>
                <val:ValidationRuleRef RuleID="AD0507" Active="Yes"/>
                <val:ValidationRuleRef RuleID="AD0508" Active="Yes"/>
                <val:ValidationRuleRef RuleID="AD0509" Active="Yes"/>
                <val:ValidationRuleRef RuleID="AD0510" Active="Yes"/>
                <val:ValidationRuleRef RuleID="AD0511" Active="Yes"/>
                <val:ValidationRuleRef RuleID="AD0513" Active="Yes"/>
                <val:ValidationRuleRef RuleID="AD0514" Active="Yes"/>
                <val:ValidationRuleRef RuleID="AD0515" Active="Yes"/>
                <val:ValidationRuleRef RuleID="AD0516" Active="Yes"/>
                <val:ValidationRuleRef RuleID="AD0517" Active="Yes"/>
                <val:ValidationRuleRef RuleID="AD0519" Active="Yes"/>
                <val:ValidationRuleRef RuleID="AD0520" Active="Yes"/>
                <val:ValidationRuleRef RuleID="AD0570" Active="Yes"/>
                <val:ValidationRuleRef RuleID="AD0616" Active="Yes"/>
                <val:ValidationRuleRef RuleID="AD0617" Active="Yes"/>
                <val:ValidationRuleRef RuleID="AD0677" Active="Yes"/>
                <val:ValidationRuleRef RuleID="AD0678" Active="Yes"/>
                <val:ValidationRuleRef RuleID="AD0681" Active="Yes"/>
                <val:ValidationRuleRef RuleID="AD0682" Active="Yes"/>
                <val:ValidationRuleRef RuleID="AD0687" Active="Yes"/>
                <val:ValidationRuleRef RuleID="AD0688" Active="Yes"/>
                <val:ValidationRuleRef RuleID="AD0792" Active="Yes"/>
                <val:ValidationRuleRef RuleID="AD0793" Active="Yes"/>
                <val:ValidationRuleRef RuleID="AD0794" Active="Yes"/>
                <val:ValidationRuleRef RuleID="AD1011" Active="Yes"/>
                <val:ValidationRuleRef RuleID="AD1012A" Active="Yes"/>
                <val:ValidationRuleRef RuleID="CT2001" Active="Yes"/>
                <val:ValidationRuleRef RuleID="CT2002" Active="Yes"/>
                <val:ValidationRuleRef RuleID="CT2003" Active="Yes"/>
                <val:ValidationRuleRef RuleID="CT2004" Active="Yes"/>
                <val:ValidationRuleRef RuleID="CT2005" Active="Yes"/>
                <val:ValidationRuleRef RuleID="CT2006" Active="Yes"/>
                <val:ValidationRuleRef RuleID="SD0001" Active="Yes"/>
                <val:ValidationRuleRef RuleID="SD0037" Active="Yes"/>
                <val:ValidationRuleRef RuleID="SD0054" Active="Yes"/>
                <val:ValidationRuleRef RuleID="SD0059" Active="Yes"/>
                <val:ValidationRuleRef RuleID="SD0060" Active="Yes"/>
                <val:ValidationRuleRef RuleID="SD0062" Active="Yes"/>
                <val:ValidationRuleRef RuleID="SD1063" Active="Yes"/>
                <val:ValidationRuleRef RuleID="SD1071" Active="Yes"/>
                <val:ValidationRuleRef RuleID="SD1152" Active="Yes"/>
                <val:ValidationRuleRef RuleID="SD1228" Active="Yes"/>
                <val:ValidationRuleRef RuleID="SD1229" Active="Yes"/>
                <val:ValidationRuleRef RuleID="SD1230" Active="Yes"/>
                <val:ValidationRuleRef RuleID="SD1231" Active="Yes"/>
                <val:ValidationRuleRef RuleID="SD1324" Active="Yes"/>
                <val:ValidationRuleRef RuleID="SD1325" Active="Yes"/>
                <val:ValidationRuleRef RuleID="SD1474" Active="Yes"/>
                <val:ValidationRuleRef RuleID="SD1475" Active="Yes"/>
            </ItemGroupDef>
            <ItemGroupDef OID="IG.ADNCA" Name="ADNCA" Repeating="Yes" IsReferenceData="No" Purpose="Analysis" def:Structure="One or more records per subject per analysis parameter per analysis visit per analysis timepoint" def:Class="BASIC DATA STRUCTURE" def:ArchiveLocationID="Location.ADNCA">
                <Description>
                    <TranslatedText xml:lang="en">Non-Compartmental Analysis</TranslatedText>
                </Description>
                <ItemRef ItemOID="IT.ADNCA.STUDYID" OrderNumber="1" Mandatory="Yes" KeySequence="1" Role="Identifier Variables for ADNCA Datasets" val:Core="Required"/>
                <ItemRef ItemOID="IT.ADNCA.USUBJID" OrderNumber="2" Mandatory="Yes" KeySequence="2" Role="Identifier Variables for ADNCA Datasets" val:Core="Required"/>
                <ItemRef ItemOID="IT.ADNCA.SUBJID" OrderNumber="3" Mandatory="No" Role="Identifier Variables for ADNCA Datasets" val:Core="Permissible"/>
                <ItemRef ItemOID="IT.ADNCA.SITEID" OrderNumber="4" Mandatory="No" Role="Identifier Variables for ADNCA Datasets" val:Core="Permissible"/>
                <ItemRef ItemOID="IT.ADNCA.ASEQ" OrderNumber="5" Mandatory="No" Role="Identifier Variables for ADNCA Datasets" val:Core="Permissible"/>
                <ItemRef ItemOID="IT.ADNCA.TRTP" OrderNumber="6" Mandatory="No" Role="Record-Level Treatment Variables for ADNCA Datasets" val:Core="Conditional"/>
                <ItemRef ItemOID="IT.ADNCA.TRTPN" OrderNumber="7" Mandatory="No" Role="Record-Level Treatment Variables for ADNCA Datasets" val:Core="Permissible"/>
                <ItemRef ItemOID="IT.ADNCA.TRTA" OrderNumber="8" Mandatory="No" Role="Record-Level Treatment Variables for ADNCA Datasets" val:Core="Conditional"/>
                <ItemRef ItemOID="IT.ADNCA.TRTAN" OrderNumber="9" Mandatory="No" Role="Record-Level Treatment Variables for ADNCA Datasets" val:Core="Permissible"/>
                <ItemRef ItemOID="IT.ADNCA.TRT#P" OrderNumber="10" Mandatory="No" Role="Treatment" val:Core="Permissible"/>
                <ItemRef ItemOID="IT.ADNCA.TRT#PN" OrderNumber="11" Mandatory="No" Role="ADSL Treatment Variables" val:Core="Permissible"/>
                <ItemRef ItemOID="IT.ADNCA.TRT#A" OrderNumber="12" Mandatory="No" Role="Treatment" val:Core="Permissible"/>
                <ItemRef ItemOID="IT.ADNCA.TRT#AN" OrderNumber="13" Mandatory="No" Role="ADSL Treatment Variables" val:Core="Permissible"/>
                <ItemRef ItemOID="IT.ADNCA.TRTPG#" OrderNumber="14" Mandatory="No" Role="Record-Level Treatment Variables for ADNCA Datasets" val:Core="Permissible"/>
                <ItemRef ItemOID="IT.ADNCA.TRTPG#N" OrderNumber="15" Mandatory="No" Role="Record-Level Treatment Variables for ADNCA Datasets" val:Core="Permissible"/>
                <ItemRef ItemOID="IT.ADNCA.TRTAG#" OrderNumber="16" Mandatory="No" Role="Record-Level Treatment Variables for ADNCA Datasets" val:Core="Conditional"/>
                <ItemRef ItemOID="IT.ADNCA.TRTAG#N" OrderNumber="17" Mandatory="No" Role="Record-Level Treatment Variables for ADNCA Datasets" val:Core="Permissible"/>
                <ItemRef ItemOID="IT.ADNCA.DOSEP" OrderNumber="18" Mandatory="No" Role="Record-Level Dose Variables for ADNCA Datasets" val:Core="Permissible"/>
                <ItemRef ItemOID="IT.ADNCA.DOSCUMP" OrderNumber="19" Mandatory="No" Role="Record-Level Dose Variables for ADNCA Datasets" val:Core="Permissible"/>
                <ItemRef ItemOID="IT.ADNCA.DOSEA" OrderNumber="20" Mandatory="Yes" Role="Record-Level Dose Variables for ADNCA Datasets" val:Core="Required"/>
                <ItemRef ItemOID="IT.ADNCA.DOSCUMA" OrderNumber="21" Mandatory="No" Role="Record-Level Dose Variables for ADNCA Datasets" val:Core="Permissible"/>
                <ItemRef ItemOID="IT.ADNCA.DOSEU" OrderNumber="22" Mandatory="Yes" Role="Record-Level Dose Variables for ADNCA Datasets" val:Core="Required"/>
                <ItemRef ItemOID="IT.ADNCA.ADT" OrderNumber="23" Mandatory="No" Role="Timing Variables for ADNCA Datasets" val:Core="Permissible"/>
                <ItemRef ItemOID="IT.ADNCA.ATM" OrderNumber="24" Mandatory="No" Role="Timing Variables for ADNCA Datasets" val:Core="Permissible"/>
                <ItemRef ItemOID="IT.ADNCA.ADTM" OrderNumber="25" Mandatory="No" Role="Timing Variables for ADNCA Datasets" val:Core="Permissible"/>
                <ItemRef ItemOID="IT.ADNCA.ADY" OrderNumber="26" Mandatory="No" Role="Timing Variables for ADNCA Datasets" val:Core="Permissible"/>
                <ItemRef ItemOID="IT.ADNCA.ADTF" OrderNumber="27" Mandatory="No" Role="Timing Variables for ADNCA Datasets" val:Core="Conditional"/>
                <ItemRef ItemOID="IT.ADNCA.ATMF" OrderNumber="28" Mandatory="No" Role="Timing Variables for ADNCA Datasets" val:Core="Conditional"/>
                <ItemRef ItemOID="IT.ADNCA.ASTDT" OrderNumber="29" Mandatory="No" Role="Timing Variables for ADNCA Datasets" val:Core="Permissible"/>
                <ItemRef ItemOID="IT.ADNCA.ASTTM" OrderNumber="30" Mandatory="No" Role="Timing Variables for ADNCA Datasets" val:Core="Permissible"/>
                <ItemRef ItemOID="IT.ADNCA.ASTDTM" OrderNumber="31" Mandatory="No" Role="Timing Variables for ADNCA Datasets" val:Core="Permissible"/>
                <ItemRef ItemOID="IT.ADNCA.ASTDY" OrderNumber="32" Mandatory="No" Role="Timing Variables for ADNCA Datasets" val:Core="Permissible"/>
                <ItemRef ItemOID="IT.ADNCA.ASTDTF" OrderNumber="33" Mandatory="No" Role="Timing Variables for ADNCA Datasets" val:Core="Conditional"/>
                <ItemRef ItemOID="IT.ADNCA.ASTTMF" OrderNumber="34" Mandatory="No" Role="Timing Variables for ADNCA Datasets" val:Core="Conditional"/>
                <ItemRef ItemOID="IT.ADNCA.AENDT" OrderNumber="35" Mandatory="No" Role="Timing Variables for ADNCA Datasets" val:Core="Permissible"/>
                <ItemRef ItemOID="IT.ADNCA.AENTM" OrderNumber="36" Mandatory="No" Role="Timing Variables for ADNCA Datasets" val:Core="Permissible"/>
                <ItemRef ItemOID="IT.ADNCA.AENDTM" OrderNumber="37" Mandatory="No" Role="Timing Variables for ADNCA Datasets" val:Core="Permissible"/>
                <ItemRef ItemOID="IT.ADNCA.AENDY" OrderNumber="38" Mandatory="No" Role="Timing Variables for ADNCA Datasets" val:Core="Permissible"/>
                <ItemRef ItemOID="IT.ADNCA.AENDTF" OrderNumber="39" Mandatory="No" Role="Timing Variables for ADNCA Datasets" val:Core="Conditional"/>
                <ItemRef ItemOID="IT.ADNCA.AENTMF" OrderNumber="40" Mandatory="No" Role="Timing Variables for ADNCA Datasets" val:Core="Conditional"/>
                <ItemRef ItemOID="IT.ADNCA.AVISIT" OrderNumber="41" Mandatory="Yes" KeySequence="4" Role="Timing Variables for ADNCA Datasets" val:Core="Required"/>
                <ItemRef ItemOID="IT.ADNCA.AVISITN" OrderNumber="42" Mandatory="No" Role="Timing Variables for ADNCA Datasets" val:Core="Permissible"/>
                <ItemRef ItemOID="IT.ADNCA.ATPT" OrderNumber="43" Mandatory="No" KeySequence="5" Role="Timing Variables for ADNCA Datasets" val:Core="Conditional"/>
                <ItemRef ItemOID="IT.ADNCA.ATPTN" OrderNumber="44" Mandatory="No" Role="Timing Variables for ADNCA Datasets" val:Core="Permissible"/>
                <ItemRef ItemOID="IT.ADNCA.ATPTREF" OrderNumber="45" Mandatory="No" Role="Timing Variables for ADNCA Datasets" val:Core="Permissible"/>
                <ItemRef ItemOID="IT.ADNCA.APHASE" OrderNumber="46" Mandatory="No" Role="Timing Variables for ADNCA Datasets" val:Core="Permissible"/>
                <ItemRef ItemOID="IT.ADNCA.APHASEN" OrderNumber="47" Mandatory="No" Role="Timing Variables for ADNCA Datasets" val:Core="Permissible"/>
                <ItemRef ItemOID="IT.ADNCA.APERIOD" OrderNumber="48" Mandatory="No" Role="Timing Variables for ADNCA Datasets" val:Core="Conditional"/>
                <ItemRef ItemOID="IT.ADNCA.APERIODC" OrderNumber="49" Mandatory="No" Role="Timing Variables for ADNCA Datasets" val:Core="Permissible"/>
                <ItemRef ItemOID="IT.ADNCA.ASPER" OrderNumber="50" Mandatory="No" Role="Timing Variables for ADNCA Datasets" val:Core="Permissible"/>
                <ItemRef ItemOID="IT.ADNCA.ASPERC" OrderNumber="51" Mandatory="No" Role="Timing Variables for ADNCA Datasets" val:Core="Permissible"/>
                <ItemRef ItemOID="IT.ADNCA.ARELTM" OrderNumber="52" Mandatory="No" Role="Timing Variables for ADNCA Datasets" val:Core="Permissible"/>
                <ItemRef ItemOID="IT.ADNCA.ARELTMU" OrderNumber="53" Mandatory="No" Role="Timing Variables for ADNCA Datasets" val:Core="Permissible"/>
                <ItemRef ItemOID="IT.ADNCA.APERSDT" OrderNumber="54" Mandatory="No" Role="Period, Subperiod, and Phase Start and End Timing Variables" val:Core="Permissible"/>
                <ItemRef ItemOID="IT.ADNCA.APERSTM" OrderNumber="55" Mandatory="No" Role="Period, Subperiod, and Phase Start and End Timing Variables" val:Core="Permissible"/>
                <ItemRef ItemOID="IT.ADNCA.APERSDTM" OrderNumber="56" Mandatory="No" Role="Period, Subperiod, and Phase Start and End Timing Variables" val:Core="Permissible"/>
                <ItemRef ItemOID="IT.ADNCA.APERSDTF" OrderNumber="57" Mandatory="No" Role="Period, Subperiod, and Phase Start and End Timing Variables" val:Core="Conditional"/>
                <ItemRef ItemOID="IT.ADNCA.APERSTMF" OrderNumber="58" Mandatory="No" Role="Period, Subperiod, and Phase Start and End Timing Variables" val:Core="Conditional"/>
                <ItemRef ItemOID="IT.ADNCA.APEREDT" OrderNumber="59" Mandatory="No" Role="Period, Subperiod, and Phase Start and End Timing Variables" val:Core="Permissible"/>
                <ItemRef ItemOID="IT.ADNCA.APERETM" OrderNumber="60" Mandatory="No" Role="Period, Subperiod, and Phase Start and End Timing Variables" val:Core="Permissible"/>
                <ItemRef ItemOID="IT.ADNCA.APEREDTM" OrderNumber="61" Mandatory="No" Role="Period, Subperiod, and Phase Start and End Timing Variables" val:Core="Permissible"/>
                <ItemRef ItemOID="IT.ADNCA.APEREDTF" OrderNumber="62" Mandatory="No" Role="Period, Subperiod, and Phase Start and End Timing Variables" val:Core="Conditional"/>
                <ItemRef ItemOID="IT.ADNCA.APERETMF" OrderNumber="63" Mandatory="No" Role="Period, Subperiod, and Phase Start and End Timing Variables" val:Core="Conditional"/>
                <ItemRef ItemOID="IT.ADNCA.ASPRSDT" OrderNumber="64" Mandatory="No" Role="Period, Subperiod, and Phase Start and End Timing Variables" val:Core="Permissible"/>
                <ItemRef ItemOID="IT.ADNCA.ASPRSTM" OrderNumber="65" Mandatory="No" Role="Period, Subperiod, and Phase Start and End Timing Variables" val:Core="Permissible"/>
                <ItemRef ItemOID="IT.ADNCA.ASPRSDTM" OrderNumber="66" Mandatory="No" Role="Period, Subperiod, and Phase Start and End Timing Variables" val:Core="Permissible"/>
                <ItemRef ItemOID="IT.ADNCA.ASPRSDTF" OrderNumber="67" Mandatory="No" Role="Period, Subperiod, and Phase Start and End Timing Variables" val:Core="Conditional"/>
                <ItemRef ItemOID="IT.ADNCA.ASPRSTMF" OrderNumber="68" Mandatory="No" Role="Period, Subperiod, and Phase Start and End Timing Variables" val:Core="Conditional"/>
                <ItemRef ItemOID="IT.ADNCA.ASPREDT" OrderNumber="69" Mandatory="No" Role="Period, Subperiod, and Phase Start and End Timing Variables" val:Core="Permissible"/>
                <ItemRef ItemOID="IT.ADNCA.ASPRETM" OrderNumber="70" Mandatory="No" Role="Period, Subperiod, and Phase Start and End Timing Variables" val:Core="Permissible"/>
                <ItemRef ItemOID="IT.ADNCA.ASPREDTM" OrderNumber="71" Mandatory="No" Role="Period, Subperiod, and Phase Start and End Timing Variables" val:Core="Permissible"/>
                <ItemRef ItemOID="IT.ADNCA.ASPREDTF" OrderNumber="72" Mandatory="No" Role="Period, Subperiod, and Phase Start and End Timing Variables" val:Core="Conditional"/>
                <ItemRef ItemOID="IT.ADNCA.ASPRETMF" OrderNumber="73" Mandatory="No" Role="Period, Subperiod, and Phase Start and End Timing Variables" val:Core="Conditional"/>
                <ItemRef ItemOID="IT.ADNCA.PHSDT" OrderNumber="74" Mandatory="No" Role="Period, Subperiod, and Phase Start and End Timing Variables" val:Core="Permissible"/>
                <ItemRef ItemOID="IT.ADNCA.PHSTM" OrderNumber="75" Mandatory="No" Role="Period, Subperiod, and Phase Start and End Timing Variables" val:Core="Permissible"/>
                <ItemRef ItemOID="IT.ADNCA.PHSDTM" OrderNumber="76" Mandatory="No" Role="Period, Subperiod, and Phase Start and End Timing Variables" val:Core="Permissible"/>
                <ItemRef ItemOID="IT.ADNCA.PHSDTF" OrderNumber="77" Mandatory="No" Role="Period, Subperiod, and Phase Start and End Timing Variables" val:Core="Conditional"/>
                <ItemRef ItemOID="IT.ADNCA.PHSTMF" OrderNumber="78" Mandatory="No" Role="Period, Subperiod, and Phase Start and End Timing Variables" val:Core="Conditional"/>
                <ItemRef ItemOID="IT.ADNCA.PHEDT" OrderNumber="79" Mandatory="No" Role="Period, Subperiod, and Phase Start and End Timing Variables" val:Core="Permissible"/>
                <ItemRef ItemOID="IT.ADNCA.PHETM" OrderNumber="80" Mandatory="No" Role="Period, Subperiod, and Phase Start and End Timing Variables" val:Core="Permissible"/>
                <ItemRef ItemOID="IT.ADNCA.PHEDTM" OrderNumber="81" Mandatory="No" Role="Period, Subperiod, and Phase Start and End Timing Variables" val:Core="Permissible"/>
                <ItemRef ItemOID="IT.ADNCA.PHEDTF" OrderNumber="82" Mandatory="No" Role="Period, Subperiod, and Phase Start and End Timing Variables" val:Core="Conditional"/>
                <ItemRef ItemOID="IT.ADNCA.PHETMF" OrderNumber="83" Mandatory="No" Role="Period, Subperiod, and Phase Start and End Timing Variables" val:Core="Conditional"/>
                <ItemRef ItemOID="IT.ADNCA.*DT" OrderNumber="84" Mandatory="No" Role="Suffixes for User-Defined Timing Variables in ADNCA Datasets" val:Core="Permissible"/>
                <ItemRef ItemOID="IT.ADNCA.*TM" OrderNumber="85" Mandatory="No" Role="Suffixes for User-Defined Timing Variables in ADNCA Datasets" val:Core="Permissible"/>
                <ItemRef ItemOID="IT.ADNCA.*DTM" OrderNumber="86" Mandatory="No" Role="Suffixes for User-Defined Timing Variables in ADNCA Datasets" val:Core="Permissible"/>
                <ItemRef ItemOID="IT.ADNCA.*ADY" OrderNumber="87" Mandatory="No" Role="Suffixes for User-Defined Timing Variables in ADNCA Datasets" val:Core="Permissible"/>
                <ItemRef ItemOID="IT.ADNCA.*DTF" OrderNumber="88" Mandatory="No" Role="Suffixes for User-Defined Timing Variables in ADNCA Datasets" val:Core="Conditional"/>
                <ItemRef ItemOID="IT.ADNCA.*TMF" OrderNumber="89" Mandatory="No" Role="Suffixes for User-Defined Timing Variables in ADNCA Datasets" val:Core="Conditional"/>
                <ItemRef ItemOID="IT.ADNCA.*SDT" OrderNumber="90" Mandatory="No" Role="Suffixes for User-Defined Timing Variables in ADNCA Datasets" val:Core="Permissible"/>
                <ItemRef ItemOID="IT.ADNCA.*STM" OrderNumber="91" Mandatory="No" Role="Suffixes for User-Defined Timing Variables in ADNCA Datasets" val:Core="Permissible"/>
                <ItemRef ItemOID="IT.ADNCA.*SDTM" OrderNumber="92" Mandatory="No" Role="Suffixes for User-Defined Timing Variables in ADNCA Datasets" val:Core="Permissible"/>
                <ItemRef ItemOID="IT.ADNCA.*SDY" OrderNumber="93" Mandatory="No" Role="Suffixes for User-Defined Timing Variables in ADNCA Datasets" val:Core="Permissible"/>
                <ItemRef ItemOID="IT.ADNCA.*SDTF" OrderNumber="94" Mandatory="No" Role="Suffixes for User-Defined Timing Variables in ADNCA Datasets" val:Core="Conditional"/>
                <ItemRef ItemOID="IT.ADNCA.*STMF" OrderNumber="95" Mandatory="No" Role="Suffixes for User-Defined Timing Variables in ADNCA Datasets" val:Core="Conditional"/>
                <ItemRef ItemOID="IT.ADNCA.*EDT" OrderNumber="96" Mandatory="No" Role="Suffixes for User-Defined Timing Variables in ADNCA Datasets" val:Core="Permissible"/>
                <ItemRef ItemOID="IT.ADNCA.*ETM" OrderNumber="97" Mandatory="No" Role="Suffixes for User-Defined Timing Variables in ADNCA Datasets" val:Core="Permissible"/>
                <ItemRef ItemOID="IT.ADNCA.*EDTM" OrderNumber="98" Mandatory="No" Role="Suffixes for User-Defined Timing Variables in ADNCA Datasets" val:Core="Permissible"/>
                <ItemRef ItemOID="IT.ADNCA.*EDY" OrderNumber="99" Mandatory="No" Role="Suffixes for User-Defined Timing Variables in ADNCA Datasets" val:Core="Permissible"/>
                <ItemRef ItemOID="IT.ADNCA.*EDTF" OrderNumber="100" Mandatory="No" Role="Suffixes for User-Defined Timing Variables in ADNCA Datasets" val:Core="Conditional"/>
                <ItemRef ItemOID="IT.ADNCA.*ETMF" OrderNumber="101" Mandatory="No" Role="Suffixes for User-Defined Timing Variables in ADNCA Datasets" val:Core="Conditional"/>
                <ItemRef ItemOID="IT.ADNCA.PARAM" OrderNumber="102" Mandatory="Yes" Role="Analysis Parameter Variables for ADNCA Datasets" val:Core="Required"/>
                <ItemRef ItemOID="IT.ADNCA.PARAMCD" OrderNumber="103" Mandatory="Yes" KeySequence="3" Role="Analysis Parameter Variables for ADNCA Datasets" val:Core="Required"/>
                <ItemRef ItemOID="IT.ADNCA.PARAMN" OrderNumber="104" Mandatory="No" Role="Analysis Parameter Variables for ADNCA Datasets" val:Core="Permissible"/>
                <ItemRef ItemOID="IT.ADNCA.PARCAT#" OrderNumber="105" Mandatory="No" Role="Analysis Parameter Variables for ADNCA Datasets" val:Core="Permissible"/>
                <ItemRef ItemOID="IT.ADNCA.PARCAT#N" OrderNumber="106" Mandatory="No" Role="Analysis Parameter Variables for ADNCA Datasets" val:Core="Permissible"/>
                <ItemRef ItemOID="IT.ADNCA.AVAL" OrderNumber="107" Mandatory="No" Role="Analysis Parameter Variables for ADNCA Datasets" val:Core="Conditional"/>
                <ItemRef ItemOID="IT.ADNCA.AVALC" OrderNumber="108" Mandatory="No" Role="Analysis Parameter Variables for ADNCA Datasets" val:Core="Conditional"/>
                <ItemRef ItemOID="IT.ADNCA.AVALCAT#" OrderNumber="109" Mandatory="No" Role="Analysis Parameter Variables for ADNCA Datasets" val:Core="Permissible"/>
                <ItemRef ItemOID="IT.ADNCA.AVALCA#N" OrderNumber="110" Mandatory="No" Role="Analysis Parameter Variables for ADNCA Datasets" val:Core="Permissible"/>
                <ItemRef ItemOID="IT.ADNCA.BASE" OrderNumber="111" Mandatory="No" Role="Analysis Parameter Variables for ADNCA Datasets" val:Core="Conditional"/>
                <ItemRef ItemOID="IT.ADNCA.BASEC" OrderNumber="112" Mandatory="No" Role="Analysis Parameter Variables for ADNCA Datasets" val:Core="Permissible"/>
                <ItemRef ItemOID="IT.ADNCA.BASECAT#" OrderNumber="113" Mandatory="No" Role="Analysis Parameter Variables for ADNCA Datasets" val:Core="Permissible"/>
                <ItemRef ItemOID="IT.ADNCA.BASECA#N" OrderNumber="114" Mandatory="No" Role="Analysis Parameter Variables for ADNCA Datasets" val:Core="Permissible"/>
                <ItemRef ItemOID="IT.ADNCA.BASETYPE" OrderNumber="115" Mandatory="No" Role="Analysis Parameter Variables for ADNCA Datasets" val:Core="Conditional"/>
                <ItemRef ItemOID="IT.ADNCA.CHG" OrderNumber="116" Mandatory="No" Role="Analysis Parameter Variables for ADNCA Datasets" val:Core="Permissible"/>
                <ItemRef ItemOID="IT.ADNCA.CHGCAT#" OrderNumber="117" Mandatory="No" Role="Analysis Parameter Variables for ADNCA Datasets" val:Core="Permissible"/>
                <ItemRef ItemOID="IT.ADNCA.CHGCAT#N" OrderNumber="118" Mandatory="No" Role="Analysis Parameter Variables for ADNCA Datasets" val:Core="Permissible"/>
                <ItemRef ItemOID="IT.ADNCA.PCHG" OrderNumber="119" Mandatory="No" Role="Analysis Parameter Variables for ADNCA Datasets" val:Core="Permissible"/>
                <ItemRef ItemOID="IT.ADNCA.PCHGCAT#" OrderNumber="120" Mandatory="No" Role="Analysis Parameter Variables for ADNCA Datasets" val:Core="Permissible"/>
                <ItemRef ItemOID="IT.ADNCA.PCHGCA#N" OrderNumber="121" Mandatory="No" Role="Analysis Parameter Variables for ADNCA Datasets" val:Core="Permissible"/>
                <ItemRef ItemOID="IT.ADNCA.R2BASE" OrderNumber="122" Mandatory="No" Role="Analysis Parameter Variables for ADNCA Datasets" val:Core="Permissible"/>
                <ItemRef ItemOID="IT.ADNCA.R2A#LO" OrderNumber="123" Mandatory="No" Role="Analysis Parameter Variables for ADNCA Datasets" val:Core="Permissible"/>
                <ItemRef ItemOID="IT.ADNCA.R2A#HI" OrderNumber="124" Mandatory="No" Role="Analysis Parameter Variables for ADNCA Datasets" val:Core="Permissible"/>
                <ItemRef ItemOID="IT.ADNCA.SHIFT#" OrderNumber="125" Mandatory="No" Role="Analysis Parameter Variables for ADNCA Datasets" val:Core="Permissible"/>
                <ItemRef ItemOID="IT.ADNCA.SHIFT#N" OrderNumber="126" Mandatory="No" Role="Analysis Parameter Variables for ADNCA Datasets" val:Core="Permissible"/>
                <ItemRef ItemOID="IT.ADNCA.BCHG" OrderNumber="127" Mandatory="No" val:Core="Permissible"/>
                <ItemRef ItemOID="IT.ADNCA.BCHGCAT#" OrderNumber="128" Mandatory="No" val:Core="Permissible"/>
                <ItemRef ItemOID="IT.ADNCA.BCHGCA#N" OrderNumber="129" Mandatory="No" val:Core="Permissible"/>
                <ItemRef ItemOID="IT.ADNCA.PBCHG" OrderNumber="130" Mandatory="No" val:Core="Permissible"/>
                <ItemRef ItemOID="IT.ADNCA.PBCHGCA#" OrderNumber="131" Mandatory="No" val:Core="Permissible"/>
                <ItemRef ItemOID="IT.ADNCA.PBCHGC#N" OrderNumber="132" Mandatory="No" val:Core="Permissible"/>
                <ItemRef ItemOID="IT.ADNCA.CRIT#" OrderNumber="133" Mandatory="No" Role="Analysis Parameter Criteria Variables for ADNCA Datasets" val:Core="Permissible"/>
                <ItemRef ItemOID="IT.ADNCA.CRIT#FL" OrderNumber="134" Mandatory="No" Role="Analysis Parameter Criteria Variables for ADNCA Datasets" val:Core="Conditional"/>
                <ItemRef ItemOID="IT.ADNCA.CRIT#FN" OrderNumber="135" Mandatory="No" Role="Analysis Parameter Criteria Variables for ADNCA Datasets" val:Core="Permissible"/>
                <ItemRef ItemOID="IT.ADNCA.MCRIT#" OrderNumber="136" Mandatory="No" val:Core="Permissible"/>
                <ItemRef ItemOID="IT.ADNCA.MCRIT#ML" OrderNumber="137" Mandatory="No" Role="Analysis Parameter Criteria Variables for ADNCA Datasets" val:Core="Conditional"/>
                <ItemRef ItemOID="IT.ADNCA.MCRIT#MN" OrderNumber="138" Mandatory="No" Role="Analysis Parameter Criteria Variables for ADNCA Datasets" val:Core="Permissible"/>
                <ItemRef ItemOID="IT.ADNCA.DTYPE" OrderNumber="139" Mandatory="No" Role="Analysis Descriptor Variables for ADNCA Datasets" val:Core="Conditional"/>
                <ItemRef ItemOID="IT.ADNCA.AWRANGE" OrderNumber="140" Mandatory="No" Role="Analysis Visit Windowing Variables for ADNCA Datasets" val:Core="Permissible"/>
                <ItemRef ItemOID="IT.ADNCA.AWTARGET" OrderNumber="141" Mandatory="No" Role="Analysis Visit Windowing Variables for ADNCA Datasets" val:Core="Permissible"/>
                <ItemRef ItemOID="IT.ADNCA.AWTDIFF" OrderNumber="142" Mandatory="No" Role="Analysis Visit Windowing Variables for ADNCA Datasets" val:Core="Permissible"/>
                <ItemRef ItemOID="IT.ADNCA.AWLO" OrderNumber="143" Mandatory="No" Role="Analysis Visit Windowing Variables for ADNCA Datasets" val:Core="Permissible"/>
                <ItemRef ItemOID="IT.ADNCA.AWHI" OrderNumber="144" Mandatory="No" Role="Analysis Visit Windowing Variables for ADNCA Datasets" val:Core="Permissible"/>
                <ItemRef ItemOID="IT.ADNCA.AWU" OrderNumber="145" Mandatory="No" Role="Analysis Visit Windowing Variables for ADNCA Datasets" val:Core="Permissible"/>
                <ItemRef ItemOID="IT.ADNCA.STARTDT" OrderNumber="146" Mandatory="No" Role="Time-to-Event Variables for ADNCA Datasets" val:Core="Permissible"/>
                <ItemRef ItemOID="IT.ADNCA.STARTDTM" OrderNumber="147" Mandatory="No" Role="Time-to-Event Variables for ADNCA Datasets" val:Core="Permissible"/>
                <ItemRef ItemOID="IT.ADNCA.STARTDTF" OrderNumber="148" Mandatory="No" Role="Time-to-Event Variables for ADNCA Datasets" val:Core="Conditional"/>
                <ItemRef ItemOID="IT.ADNCA.STARTTMF" OrderNumber="149" Mandatory="No" Role="Time-to-Event Variables for ADNCA Datasets" val:Core="Conditional"/>
                <ItemRef ItemOID="IT.ADNCA.CNSR" OrderNumber="150" Mandatory="No" Role="Time-to-Event Variables for ADNCA Datasets" val:Core="Conditional"/>
                <ItemRef ItemOID="IT.ADNCA.EVNTDESC" OrderNumber="151" Mandatory="No" Role="Time-to-Event Variables for ADNCA Datasets" val:Core="Permissible"/>
                <ItemRef ItemOID="IT.ADNCA.CNSDTDSC" OrderNumber="152" Mandatory="No" Role="Time-to-Event Variables for ADNCA Datasets" val:Core="Permissible"/>
                <ItemRef ItemOID="IT.ADNCA.ATOXGR" OrderNumber="153" Mandatory="No" Role="Toxicity and Range Variables for ADNCA Datasets" val:Core="Permissible"/>
                <ItemRef ItemOID="IT.ADNCA.ATOXGRN" OrderNumber="154" Mandatory="No" val:Core="Permissible"/>
                <ItemRef ItemOID="IT.ADNCA.BTOXGR" OrderNumber="155" Mandatory="No" Role="Toxicity and Range Variables for ADNCA Datasets" val:Core="Permissible"/>
                <ItemRef ItemOID="IT.ADNCA.BTOXGRN" OrderNumber="156" Mandatory="No" val:Core="Permissible"/>
                <ItemRef ItemOID="IT.ADNCA.ANRIND" OrderNumber="157" Mandatory="No" Role="Toxicity and Range Variables for ADNCA Datasets" val:Core="Permissible"/>
                <ItemRef ItemOID="IT.ADNCA.BNRIND" OrderNumber="158" Mandatory="No" Role="Toxicity and Range Variables for ADNCA Datasets" val:Core="Permissible"/>
                <ItemRef ItemOID="IT.ADNCA.ANRLO" OrderNumber="159" Mandatory="No" Role="Toxicity and Range Variables for ADNCA Datasets" val:Core="Permissible"/>
                <ItemRef ItemOID="IT.ADNCA.ANRLOC" OrderNumber="160" Mandatory="No" Role="Toxicity and Range Variables for ADNCA Datasets" val:Core="Permissible"/>
                <ItemRef ItemOID="IT.ADNCA.ANRHI" OrderNumber="161" Mandatory="No" Role="Toxicity and Range Variables for ADNCA Datasets" val:Core="Permissible"/>
                <ItemRef ItemOID="IT.ADNCA.ANRHIC" OrderNumber="162" Mandatory="No" Role="Toxicity and Range Variables for ADNCA Datasets" val:Core="Permissible"/>
                <ItemRef ItemOID="IT.ADNCA.A#LO" OrderNumber="163" Mandatory="No" Role="Toxicity and Range Variables for ADNCA Datasets" val:Core="Conditional"/>
                <ItemRef ItemOID="IT.ADNCA.A#LOC" OrderNumber="164" Mandatory="No" Role="Toxicity and Range Variables for ADNCA Datasets" val:Core="Permissible"/>
                <ItemRef ItemOID="IT.ADNCA.A#HI" OrderNumber="165" Mandatory="No" Role="Toxicity and Range Variables for ADNCA Datasets" val:Core="Conditional"/>
                <ItemRef ItemOID="IT.ADNCA.A#HIC" OrderNumber="166" Mandatory="No" Role="Toxicity and Range Variables for ADNCA Datasets" val:Core="Permissible"/>
                <ItemRef ItemOID="IT.ADNCA.A#IND" OrderNumber="167" Mandatory="No" Role="Toxicity and Range Variables for ADNCA Datasets" val:Core="Permissible"/>
                <ItemRef ItemOID="IT.ADNCA.B#IND" OrderNumber="168" Mandatory="No" Role="Toxicity and Range Variables for ADNCA Datasets" val:Core="Permissible"/>
                <ItemRef ItemOID="IT.ADNCA.ATOXGRL" OrderNumber="169" Mandatory="No" val:Core="Permissible"/>
                <ItemRef ItemOID="IT.ADNCA.ATOXGRLN" OrderNumber="170" Mandatory="No" val:Core="Permissible"/>
                <ItemRef ItemOID="IT.ADNCA.ATOXGRH" OrderNumber="171" Mandatory="No" val:Core="Permissible"/>
                <ItemRef ItemOID="IT.ADNCA.ATOXGRHN" OrderNumber="172" Mandatory="No" val:Core="Permissible"/>
                <ItemRef ItemOID="IT.ADNCA.BTOXGRL" OrderNumber="173" Mandatory="No" val:Core="Permissible"/>
                <ItemRef ItemOID="IT.ADNCA.BTOXGRLN" OrderNumber="174" Mandatory="No" val:Core="Permissible"/>
                <ItemRef ItemOID="IT.ADNCA.BTOXGRH" OrderNumber="175" Mandatory="No" val:Core="Permissible"/>
                <ItemRef ItemOID="IT.ADNCA.BTOXGRHN" OrderNumber="176" Mandatory="No" val:Core="Permissible"/>
                <ItemRef ItemOID="IT.ADNCA.ATOXDSCL" OrderNumber="177" Mandatory="No" val:Core="Permissible"/>
                <ItemRef ItemOID="IT.ADNCA.ATOXDSCH" OrderNumber="178" Mandatory="No" val:Core="Permissible"/>
                <ItemRef ItemOID="IT.ADNCA.NCAXFL" OrderNumber="179" Mandatory="No" Role="Non-compartmental Analysis Variables" val:Core="Permissible"/>
                <ItemRef ItemOID="IT.ADNCA.NCAXFN" OrderNumber="180" Mandatory="No" Role="Non-compartmental Analysis Variables" val:Core="Permissible"/>
                <ItemRef ItemOID="IT.ADNCA.NCA#XRS" OrderNumber="181" Mandatory="No" Role="Non-compartmental Analysis Variables" val:Core="Permissible"/>
                <ItemRef ItemOID="IT.ADNCA.NCA#XRSN" OrderNumber="182" Mandatory="No" Role="Non-compartmental Analysis Variables" val:Core="Permissible"/>
                <ItemRef ItemOID="IT.ADNCA.PKSUMXF" OrderNumber="183" Mandatory="No" Role="Non-compartmental Analysis Variables" val:Core="Permissible"/>
                <ItemRef ItemOID="IT.ADNCA.PKSUMXFN" OrderNumber="184" Mandatory="No" Role="Non-compartmental Analysis Variables" val:Core="Permissible"/>
                <ItemRef ItemOID="IT.ADNCA.METABFL" OrderNumber="185" Mandatory="No" Role="Non-compartmental Analysis Variables" val:Core="Conditional"/>
                <ItemRef ItemOID="IT.ADNCA.COHORT" OrderNumber="186" Mandatory="No" Role="Non-compartmental Analysis Variables" val:Core="Permissible"/>
                <ItemRef ItemOID="IT.ADNCA.COHORTN" OrderNumber="187" Mandatory="No" Role="Non-compartmental Analysis Variables" val:Core="Permissible"/>
                <ItemRef ItemOID="IT.ADNCA.ROUTE" OrderNumber="188" Mandatory="No" Role="Non-compartmental Analysis Variables" val:Core="Permissible"/>
                <ItemRef ItemOID="IT.ADNCA.TRTRINT" OrderNumber="189" Mandatory="No" Role="Non-compartmental Analysis Variables" val:Core="Permissible"/>
                <ItemRef ItemOID="IT.ADNCA.TRTRINTU" OrderNumber="190" Mandatory="No" Role="Non-compartmental Analysis Variables" val:Core="Permissible"/>
                <ItemRef ItemOID="IT.ADNCA.DOSPCTDF" OrderNumber="191" Mandatory="No" Role="Non-compartmental Analysis Variables" val:Core="Conditional"/>
                <ItemRef ItemOID="IT.ADNCA.DOSEFRQ" OrderNumber="192" Mandatory="No" Role="Non-compartmental Analysis Variables" val:Core="Conditional"/>
                <ItemRef ItemOID="IT.ADNCA.ACYCLE" OrderNumber="193" Mandatory="No" Role="Non-compartmental Analysis Variables" val:Core="Permissible"/>
                <ItemRef ItemOID="IT.ADNCA.ACYCLEC" OrderNumber="194" Mandatory="No" Role="Non-compartmental Analysis Variables" val:Core="Permissible"/>
                <ItemRef ItemOID="IT.ADNCA.FANLDT" OrderNumber="195" Mandatory="No" Role="Non-compartmental Analysis Variables" val:Core="Permissible"/>
                <ItemRef ItemOID="IT.ADNCA.FANLTM" OrderNumber="196" Mandatory="No" Role="Non-compartmental Analysis Variables" val:Core="Permissible"/>
                <ItemRef ItemOID="IT.ADNCA.FANLDTM" OrderNumber="197" Mandatory="No" Role="Non-compartmental Analysis Variables" val:Core="Permissible"/>
                <ItemRef ItemOID="IT.ADNCA.FANLEDT" OrderNumber="198" Mandatory="No" Role="Non-compartmental Analysis Variables" val:Core="Permissible"/>
                <ItemRef ItemOID="IT.ADNCA.FANLETM" OrderNumber="199" Mandatory="No" Role="Non-compartmental Analysis Variables" val:Core="Permissible"/>
                <ItemRef ItemOID="IT.ADNCA.FANLEDTM" OrderNumber="200" Mandatory="No" Role="Non-compartmental Analysis Variables" val:Core="Permissible"/>
                <ItemRef ItemOID="IT.ADNCA.PCRFTDT" OrderNumber="201" Mandatory="Yes" Role="Non-compartmental Analysis Variables" val:Core="Required"/>
                <ItemRef ItemOID="IT.ADNCA.PCRFTTM" OrderNumber="202" Mandatory="Yes" Role="Non-compartmental Analysis Variables" val:Core="Required"/>
                <ItemRef ItemOID="IT.ADNCA.PCRFTDTM" OrderNumber="203" Mandatory="Yes" Role="Non-compartmental Analysis Variables" val:Core="Required"/>
                <ItemRef ItemOID="IT.ADNCA.PCRFEDT" OrderNumber="204" Mandatory="No" Role="Non-compartmental Analysis Variables" val:Core="Conditional"/>
                <ItemRef ItemOID="IT.ADNCA.PCRFETM" OrderNumber="205" Mandatory="No" Role="Non-compartmental Analysis Variables" val:Core="Conditional"/>
                <ItemRef ItemOID="IT.ADNCA.PCRFEDTM" OrderNumber="206" Mandatory="No" Role="Non-compartmental Analysis Variables" val:Core="Conditional"/>
                <ItemRef ItemOID="IT.ADNCA.NFRLT" OrderNumber="207" Mandatory="No" Role="Non-compartmental Analysis Variables" val:Core="Permissible"/>
                <ItemRef ItemOID="IT.ADNCA.AFRLT" OrderNumber="208" Mandatory="No" Role="Non-compartmental Analysis Variables" val:Core="Permissible"/>
                <ItemRef ItemOID="IT.ADNCA.NEFRLT" OrderNumber="209" Mandatory="No" Role="Non-compartmental Analysis Variables" val:Core="Permissible"/>
                <ItemRef ItemOID="IT.ADNCA.AEFRLT" OrderNumber="210" Mandatory="No" Role="Non-compartmental Analysis Variables" val:Core="Permissible"/>
                <ItemRef ItemOID="IT.ADNCA.FRLTU" OrderNumber="211" Mandatory="No" Role="Non-compartmental Analysis Variables" val:Core="Permissible"/>
                <ItemRef ItemOID="IT.ADNCA.NRRLT" OrderNumber="212" Mandatory="Yes" Role="Non-compartmental Analysis Variables" val:Core="Required"/>
                <ItemRef ItemOID="IT.ADNCA.ARRLT" OrderNumber="213" Mandatory="Yes" Role="Non-compartmental Analysis Variables" val:Core="Required"/>
                <ItemRef ItemOID="IT.ADNCA.MRRLT" OrderNumber="214" Mandatory="No" Role="Non-compartmental Analysis Variables" val:Core="Permissible"/>
                <ItemRef ItemOID="IT.ADNCA.NERRLT" OrderNumber="215" Mandatory="No" Role="Non-compartmental Analysis Variables" val:Core="Permissible"/>
                <ItemRef ItemOID="IT.ADNCA.AERRLT" OrderNumber="216" Mandatory="No" Role="Non-compartmental Analysis Variables" val:Core="Permissible"/>
                <ItemRef ItemOID="IT.ADNCA.MERRLT" OrderNumber="217" Mandatory="No" Role="Non-compartmental Analysis Variables" val:Core="Permissible"/>
                <ItemRef ItemOID="IT.ADNCA.RRLTU" OrderNumber="218" Mandatory="Yes" Role="Non-compartmental Analysis Variables" val:Core="Required"/>
                <ItemRef ItemOID="IT.ADNCA.TMPCTDF" OrderNumber="219" Mandatory="No" Role="Non-compartmental Analysis Variables" val:Core="Permissible"/>
                <ItemRef ItemOID="IT.ADNCA.ADOSEDUR" OrderNumber="220" Mandatory="No" Role="Non-compartmental Analysis Variables" val:Core="Conditional"/>
                <ItemRef ItemOID="IT.ADNCA.NDOSEDUR" OrderNumber="221" Mandatory="No" Role="Non-compartmental Analysis Variables" val:Core="Conditional"/>
                <ItemRef ItemOID="IT.ADNCA.DOSEDURU" OrderNumber="222" Mandatory="No" Role="Non-compartmental Analysis Variables" val:Core="Permissible"/>
                <ItemRef ItemOID="IT.ADNCA.AVALU" OrderNumber="223" Mandatory="Yes" Role="Non-compartmental Analysis Variables" val:Core="Required"/>
                <ItemRef ItemOID="IT.ADNCA.PCSPEC" OrderNumber="224" Mandatory="No" Role="Non-compartmental Analysis Variables" val:Core="Permissible"/>
                <ItemRef ItemOID="IT.ADNCA.PCSTRESC" OrderNumber="225" Mandatory="No" Role="Non-compartmental Analysis Variables" val:Core="Conditional"/>
                <ItemRef ItemOID="IT.ADNCA.PCSTRESU" OrderNumber="226" Mandatory="No" Role="Non-compartmental Analysis Variables" val:Core="Conditional"/>
                <ItemRef ItemOID="IT.ADNCA.ALLOQ" OrderNumber="227" Mandatory="No" Role="Non-compartmental Analysis Variables" val:Core="Conditional"/>
                <ItemRef ItemOID="IT.ADNCA.PCLLOQ" OrderNumber="228" Mandatory="No" Role="Non-compartmental Analysis Variables" val:Core="Conditional"/>
                <ItemRef ItemOID="IT.ADNCA.VOLUME" OrderNumber="229" Mandatory="No" Role="Non-compartmental Analysis Variables" val:Core="Conditional"/>
                <ItemRef ItemOID="IT.ADNCA.VOLUMEU" OrderNumber="230" Mandatory="No" Role="Non-compartmental Analysis Variables" val:Core="Conditional"/>
                <ItemRef ItemOID="IT.ADNCA.SPWEIGHT" OrderNumber="231" Mandatory="No" Role="Non-compartmental Analysis Variables" val:Core="Conditional"/>
                <ItemRef ItemOID="IT.ADNCA.SPWEIGHU" OrderNumber="232" Mandatory="No" Role="Non-compartmental Analysis Variables" val:Core="Conditional"/>
                <ItemRef ItemOID="IT.ADNCA.PCGRPID" OrderNumber="233" Mandatory="No" Role="Non-compartmental Analysis Variables" val:Core="Permissible"/>
                <ItemRef ItemOID="IT.ADNCA.PCSEQ" OrderNumber="234" Mandatory="No" Role="Non-compartmental Analysis Variables" val:Core="Conditional"/>
                <ItemRef ItemOID="IT.ADNCA.ABLFL" OrderNumber="235" Mandatory="No" Role="Flag Variables for ADNCA Datasets" val:Core="Conditional"/>
                <ItemRef ItemOID="IT.ADNCA.ABLFN" OrderNumber="236" Mandatory="No" Role="Flag Variables for ADNCA Datasets" val:Core="Permissible"/>
                <ItemRef ItemOID="IT.ADNCA.ANL#FL" OrderNumber="237" Mandatory="No" Role="Flag Variables for ADNCA Datasets" val:Core="Conditional"/>
                <ItemRef ItemOID="IT.ADNCA.ANL#FN" OrderNumber="238" Mandatory="No" Role="Flag Variables for ADNCA Datasets" val:Core="Permissible"/>
                <ItemRef ItemOID="IT.ADNCA.ONTRTFL" OrderNumber="239" Mandatory="No" Role="Flag Variables for ADNCA Datasets" val:Core="Permissible"/>
                <ItemRef ItemOID="IT.ADNCA.ONTRTFN" OrderNumber="240" Mandatory="No" Role="Flag Variables for ADNCA Datasets" val:Core="Permissible"/>
                <ItemRef ItemOID="IT.ADNCA.LVOTFL" OrderNumber="241" Mandatory="No" Role="Flag Variables for ADNCA Datasets" val:Core="Permissible"/>
                <ItemRef ItemOID="IT.ADNCA.LVOTFN" OrderNumber="242" Mandatory="No" Role="Flag Variables for ADNCA Datasets" val:Core="Permissible"/>
                <ItemRef ItemOID="IT.ADNCA.ITTRFL" OrderNumber="243" Mandatory="No" Role="ADNCA Population Indicators" val:Core="Permissible"/>
                <ItemRef ItemOID="IT.ADNCA.ITTRFN" OrderNumber="244" Mandatory="No" Role="ADNCA Population Indicators" val:Core="Permissible"/>
                <ItemRef ItemOID="IT.ADNCA.SAFRFL" OrderNumber="245" Mandatory="No" Role="ADNCA Population Indicators" val:Core="Permissible"/>
                <ItemRef ItemOID="IT.ADNCA.SAFRFN" OrderNumber="246" Mandatory="No" Role="ADNCA Population Indicators" val:Core="Permissible"/>
                <ItemRef ItemOID="IT.ADNCA.FASRFL" OrderNumber="247" Mandatory="No" Role="ADNCA Population Indicators" val:Core="Permissible"/>
                <ItemRef ItemOID="IT.ADNCA.FASRFN" OrderNumber="248" Mandatory="No" Role="ADNCA Population Indicators" val:Core="Permissible"/>
                <ItemRef ItemOID="IT.ADNCA.PPROTRFL" OrderNumber="249" Mandatory="No" Role="ADNCA Population Indicators" val:Core="Permissible"/>
                <ItemRef ItemOID="IT.ADNCA.PPROTRFN" OrderNumber="250" Mandatory="No" Role="ADNCA Population Indicators" val:Core="Permissible"/>
                <ItemRef ItemOID="IT.ADNCA.COMPLRFL" OrderNumber="251" Mandatory="No" Role="ADNCA Population Indicators" val:Core="Permissible"/>
                <ItemRef ItemOID="IT.ADNCA.COMPRFN" OrderNumber="252" Mandatory="No" Role="ADNCA Population Indicators" val:Core="Permissible"/>
                <ItemRef ItemOID="IT.ADNCA.ITTPFL" OrderNumber="253" Mandatory="No" Role="ADNCA Population Indicators" val:Core="Permissible"/>
                <ItemRef ItemOID="IT.ADNCA.ITTPFN" OrderNumber="254" Mandatory="No" Role="ADNCA Population Indicators" val:Core="Permissible"/>
                <ItemRef ItemOID="IT.ADNCA.SAFPFL" OrderNumber="255" Mandatory="No" Role="ADNCA Population Indicators" val:Core="Permissible"/>
                <ItemRef ItemOID="IT.ADNCA.SAFPFN" OrderNumber="256" Mandatory="No" Role="ADNCA Population Indicators" val:Core="Permissible"/>
                <ItemRef ItemOID="IT.ADNCA.FASPFL" OrderNumber="257" Mandatory="No" Role="ADNCA Population Indicators" val:Core="Permissible"/>
                <ItemRef ItemOID="IT.ADNCA.FASPFN" OrderNumber="258" Mandatory="No" Role="ADNCA Population Indicators" val:Core="Permissible"/>
                <ItemRef ItemOID="IT.ADNCA.PPROTPFL" OrderNumber="259" Mandatory="No" Role="ADNCA Population Indicators" val:Core="Permissible"/>
                <ItemRef ItemOID="IT.ADNCA.PPROTPFN" OrderNumber="260" Mandatory="No" Role="ADNCA Population Indicators" val:Core="Permissible"/>
                <ItemRef ItemOID="IT.ADNCA.COMPLPFL" OrderNumber="261" Mandatory="No" Role="ADNCA Population Indicators" val:Core="Permissible"/>
                <ItemRef ItemOID="IT.ADNCA.COMPLPFN" OrderNumber="262" Mandatory="No" Role="ADNCA Population Indicators" val:Core="Permissible"/>
                <ItemRef ItemOID="IT.ADNCA.SRCDOM" OrderNumber="263" Mandatory="No" Role="Datapoint Traceability Variables" val:Core="Permissible"/>
                <ItemRef ItemOID="IT.ADNCA.SRCVAR" OrderNumber="264" Mandatory="No" Role="Datapoint Traceability Variables" val:Core="Permissible"/>
                <ItemRef ItemOID="IT.ADNCA.SRCSEQ" OrderNumber="265" Mandatory="No" Role="Datapoint Traceability Variables" val:Core="Permissible"/>
                <ItemRef ItemOID="IT.ADNCA.SITEGR#" OrderNumber="266" Mandatory="No" Role="ADSL Identifier Variables" val:Core="Permissible"/>
                <ItemRef ItemOID="IT.ADNCA.SITEGR#N" OrderNumber="267" Mandatory="No" Role="ADSL Identifier Variables" val:Core="Permissible"/>
                <ItemRef ItemOID="IT.ADNCA.REGION#" OrderNumber="268" Mandatory="No" Role="ADSL Identifier Variables" val:Core="Permissible"/>
                <ItemRef ItemOID="IT.ADNCA.REGION#N" OrderNumber="269" Mandatory="No" Role="ADSL Identifier Variables" val:Core="Permissible"/>
                <ItemRef ItemOID="IT.ADNCA.AGE" OrderNumber="270" Mandatory="No" Role="ADSL Subject Demographics Variables" val:Core="Permissible"/>
                <ItemRef ItemOID="IT.ADNCA.AGEU" OrderNumber="271" Mandatory="No" Role="ADSL Subject Demographics Variables" val:Core="Permissible"/>
                <ItemRef ItemOID="IT.ADNCA.AGEGR#" OrderNumber="272" Mandatory="No" Role="ADSL Subject Demographics Variables" val:Core="Permissible"/>
                <ItemRef ItemOID="IT.ADNCA.AGEGR#N" OrderNumber="273" Mandatory="No" Role="ADSL Subject Demographics Variables" val:Core="Permissible"/>
                <ItemRef ItemOID="IT.ADNCA.AAGE" OrderNumber="274" Mandatory="No" Role="ADSL Subject Demographics Variables" val:Core="Permissible"/>
                <ItemRef ItemOID="IT.ADNCA.SEX" OrderNumber="275" Mandatory="No" Role="ADSL Subject Demographics Variables" val:Core="Permissible"/>
                <ItemRef ItemOID="IT.ADNCA.RACE" OrderNumber="276" Mandatory="No" Role="ADSL Subject Demographics Variables" val:Core="Permissible"/>
                <ItemRef ItemOID="IT.ADNCA.RACEGR#" OrderNumber="277" Mandatory="No" Role="ADSL Subject Demographics Variables" val:Core="Permissible"/>
                <ItemRef ItemOID="IT.ADNCA.RACEGR#N" OrderNumber="278" Mandatory="No" Role="ADSL Subject Demographics Variables" val:Core="Permissible"/>
                <ItemRef ItemOID="IT.ADNCA.FASFL" OrderNumber="279" Mandatory="No" Role="ADSL Population Indicator Variables" val:Core="Permissible"/>
                <ItemRef ItemOID="IT.ADNCA.FASFN" OrderNumber="280" Mandatory="No" Role="Population Flag" val:Core="Permissible"/>
                <ItemRef ItemOID="IT.ADNCA.SAFFL" OrderNumber="281" Mandatory="No" Role="ADSL Population Indicator Variables" val:Core="Permissible"/>
                <ItemRef ItemOID="IT.ADNCA.SAFFN" OrderNumber="282" Mandatory="No" Role="Population Flag" val:Core="Permissible"/>
                <ItemRef ItemOID="IT.ADNCA.ITTFL" OrderNumber="283" Mandatory="No" Role="ADSL Population Indicator Variables" val:Core="Permissible"/>
                <ItemRef ItemOID="IT.ADNCA.ITTFN" OrderNumber="284" Mandatory="No" Role="Population Flag" val:Core="Permissible"/>
                <ItemRef ItemOID="IT.ADNCA.PPROTFL" OrderNumber="285" Mandatory="No" Role="ADSL Population Indicator Variables" val:Core="Permissible"/>
                <ItemRef ItemOID="IT.ADNCA.PPROTFN" OrderNumber="286" Mandatory="No" Role="Population Flag" val:Core="Permissible"/>
                <ItemRef ItemOID="IT.ADNCA.COMPLFL" OrderNumber="287" Mandatory="No" Role="ADSL Population Indicator Variables" val:Core="Permissible"/>
                <ItemRef ItemOID="IT.ADNCA.COMPLFN" OrderNumber="288" Mandatory="No" Role="Population Flag" val:Core="Permissible"/>
                <ItemRef ItemOID="IT.ADNCA.RANDFL" OrderNumber="289" Mandatory="No" Role="ADSL Population Indicator Variables" val:Core="Permissible"/>
                <ItemRef ItemOID="IT.ADNCA.RANDFN" OrderNumber="290" Mandatory="No" Role="Population Flag" val:Core="Permissible"/>
                <ItemRef ItemOID="IT.ADNCA.ENRLFL" OrderNumber="291" Mandatory="No" Role="ADSL Population Indicator Variables" val:Core="Permissible"/>
                <ItemRef ItemOID="IT.ADNCA.ENRLFN" OrderNumber="292" Mandatory="No" Role="Population Flag" val:Core="Permissible"/>
                <ItemRef ItemOID="IT.ADNCA.ARM" OrderNumber="293" Mandatory="No" Role="ADSL Treatment Variables" val:Core="Permissible"/>
                <ItemRef ItemOID="IT.ADNCA.ACTARM" OrderNumber="294" Mandatory="No" Role="ADSL Treatment Variables" val:Core="Permissible"/>
                <ItemRef ItemOID="IT.ADNCA.*FL" OrderNumber="295" Mandatory="No" Role="Flag" val:Core="Permissible"/>
                <ItemRef ItemOID="IT.ADNCA.TRTSEQP" OrderNumber="296" Mandatory="No" Role="ADSL Treatment Variables" val:Core="Permissible"/>
                <ItemRef ItemOID="IT.ADNCA.TRTSEQPN" OrderNumber="297" Mandatory="No" Role="ADSL Treatment Variables" val:Core="Permissible"/>
                <ItemRef ItemOID="IT.ADNCA.TRTSEQA" OrderNumber="298" Mandatory="No" Role="ADSL Treatment Variables" val:Core="Permissible"/>
                <ItemRef ItemOID="IT.ADNCA.TRTSEQAN" OrderNumber="299" Mandatory="No" Role="ADSL Treatment Variables" val:Core="Permissible"/>
                <ItemRef ItemOID="IT.ADNCA.TR#PG#" OrderNumber="300" Mandatory="No" Role="ADSL Treatment Variables" val:Core="Permissible"/>
                <ItemRef ItemOID="IT.ADNCA.TR#PG#N" OrderNumber="301" Mandatory="No" Role="ADSL Treatment Variables" val:Core="Permissible"/>
                <ItemRef ItemOID="IT.ADNCA.TR#AG#" OrderNumber="302" Mandatory="No" Role="ADSL Treatment Variables" val:Core="Permissible"/>
                <ItemRef ItemOID="IT.ADNCA.TR#AG#N" OrderNumber="303" Mandatory="No" Role="ADSL Treatment Variables" val:Core="Permissible"/>
                <ItemRef ItemOID="IT.ADNCA.TSEQPG#" OrderNumber="304" Mandatory="No" Role="ADSL Treatment Variables" val:Core="Permissible"/>
                <ItemRef ItemOID="IT.ADNCA.TSEQPG#N" OrderNumber="305" Mandatory="No" Role="ADSL Treatment Variables" val:Core="Permissible"/>
                <ItemRef ItemOID="IT.ADNCA.TSEQAG#" OrderNumber="306" Mandatory="No" Role="ADSL Treatment Variables" val:Core="Permissible"/>
                <ItemRef ItemOID="IT.ADNCA.TSEQAG#N" OrderNumber="307" Mandatory="No" Role="ADSL Treatment Variables" val:Core="Permissible"/>
                <ItemRef ItemOID="IT.ADNCA.DOSE#P" OrderNumber="308" Mandatory="No" Role="ADSL Dose Variables" val:Core="Permissible"/>
                <ItemRef ItemOID="IT.ADNCA.DOSE#A" OrderNumber="309" Mandatory="No" Role="ADSL Dose Variables" val:Core="Permissible"/>
                <ItemRef ItemOID="IT.ADNCA.DOSE#U" OrderNumber="310" Mandatory="No" Role="ADSL Dose Variables" val:Core="Permissible"/>
                <ItemRef ItemOID="IT.ADNCA.TRTSDT" OrderNumber="311" Mandatory="No" Role="ADSL Treatment Timing Variables" val:Core="Permissible"/>
                <ItemRef ItemOID="IT.ADNCA.TRTSTM" OrderNumber="312" Mandatory="No" Role="ADSL Treatment Timing Variables" val:Core="Permissible"/>
                <ItemRef ItemOID="IT.ADNCA.TRTSDTM" OrderNumber="313" Mandatory="No" Role="ADSL Treatment Timing Variables" val:Core="Permissible"/>
                <ItemRef ItemOID="IT.ADNCA.TRTSDTF" OrderNumber="314" Mandatory="No" Role="ADSL Treatment Timing Variables" val:Core="Permissible"/>
                <ItemRef ItemOID="IT.ADNCA.TRTSTMF" OrderNumber="315" Mandatory="No" Role="ADSL Treatment Timing Variables" val:Core="Permissible"/>
                <ItemRef ItemOID="IT.ADNCA.TRTEDT" OrderNumber="316" Mandatory="No" Role="ADSL Treatment Timing Variables" val:Core="Permissible"/>
                <ItemRef ItemOID="IT.ADNCA.TRTETM" OrderNumber="317" Mandatory="No" Role="ADSL Treatment Timing Variables" val:Core="Permissible"/>
                <ItemRef ItemOID="IT.ADNCA.TRTEDTM" OrderNumber="318" Mandatory="No" Role="ADSL Treatment Timing Variables" val:Core="Permissible"/>
                <ItemRef ItemOID="IT.ADNCA.TRTEDTF" OrderNumber="319" Mandatory="No" Role="ADSL Treatment Timing Variables" val:Core="Permissible"/>
                <ItemRef ItemOID="IT.ADNCA.TRTETMF" OrderNumber="320" Mandatory="No" Role="ADSL Treatment Timing Variables" val:Core="Permissible"/>
                <ItemRef ItemOID="IT.ADNCA.TR#SDT" OrderNumber="321" Mandatory="No" Role="ADSL Treatment Timing Variables" val:Core="Permissible"/>
                <ItemRef ItemOID="IT.ADNCA.TR#STM" OrderNumber="322" Mandatory="No" Role="ADSL Treatment Timing Variables" val:Core="Permissible"/>
                <ItemRef ItemOID="IT.ADNCA.TR#SDTM" OrderNumber="323" Mandatory="No" Role="ADSL Treatment Timing Variables" val:Core="Permissible"/>
                <ItemRef ItemOID="IT.ADNCA.TR#SDTF" OrderNumber="324" Mandatory="No" Role="ADSL Treatment Timing Variables" val:Core="Permissible"/>
                <ItemRef ItemOID="IT.ADNCA.TR#STMF" OrderNumber="325" Mandatory="No" Role="ADSL Treatment Timing Variables" val:Core="Permissible"/>
                <ItemRef ItemOID="IT.ADNCA.TR#EDT" OrderNumber="326" Mandatory="No" Role="ADSL Treatment Timing Variables" val:Core="Permissible"/>
                <ItemRef ItemOID="IT.ADNCA.TR#ETM" OrderNumber="327" Mandatory="No" Role="ADSL Treatment Timing Variables" val:Core="Permissible"/>
                <ItemRef ItemOID="IT.ADNCA.TR#EDTM" OrderNumber="328" Mandatory="No" Role="ADSL Treatment Timing Variables" val:Core="Permissible"/>
                <ItemRef ItemOID="IT.ADNCA.TR#EDTF" OrderNumber="329" Mandatory="No" Role="ADSL Treatment Timing Variables" val:Core="Permissible"/>
                <ItemRef ItemOID="IT.ADNCA.TR#ETMF" OrderNumber="330" Mandatory="No" Role="ADSL Treatment Timing Variables" val:Core="Permissible"/>
                <ItemRef ItemOID="IT.ADNCA.AP#SDT" OrderNumber="331" Mandatory="No" Role="Subject-Level Period, Subperiod, and Phase Timing Variables" val:Core="Permissible"/>
                <ItemRef ItemOID="IT.ADNCA.AP#STM" OrderNumber="332" Mandatory="No" Role="Subject-Level Period, Subperiod, and Phase Timing Variables" val:Core="Permissible"/>
                <ItemRef ItemOID="IT.ADNCA.AP#SDTM" OrderNumber="333" Mandatory="No" Role="Subject-Level Period, Subperiod, and Phase Timing Variables" val:Core="Permissible"/>
                <ItemRef ItemOID="IT.ADNCA.AP#SDTF" OrderNumber="334" Mandatory="No" Role="Subject-Level Period, Subperiod, and Phase Timing Variables" val:Core="Permissible"/>
                <ItemRef ItemOID="IT.ADNCA.AP#STMF" OrderNumber="335" Mandatory="No" Role="Subject-Level Period, Subperiod, and Phase Timing Variables" val:Core="Permissible"/>
                <ItemRef ItemOID="IT.ADNCA.AP#EDT" OrderNumber="336" Mandatory="No" Role="Subject-Level Period, Subperiod, and Phase Timing Variables" val:Core="Permissible"/>
                <ItemRef ItemOID="IT.ADNCA.AP#ETM" OrderNumber="337" Mandatory="No" Role="Subject-Level Period, Subperiod, and Phase Timing Variables" val:Core="Permissible"/>
                <ItemRef ItemOID="IT.ADNCA.AP#EDTM" OrderNumber="338" Mandatory="No" Role="Subject-Level Period, Subperiod, and Phase Timing Variables" val:Core="Permissible"/>
                <ItemRef ItemOID="IT.ADNCA.AP#EDTF" OrderNumber="339" Mandatory="No" Role="Subject-Level Period, Subperiod, and Phase Timing Variables" val:Core="Permissible"/>
                <ItemRef ItemOID="IT.ADNCA.AP#ETMF" OrderNumber="340" Mandatory="No" Role="Subject-Level Period, Subperiod, and Phase Timing Variables" val:Core="Permissible"/>
                <ItemRef ItemOID="IT.ADNCA.P#S#" OrderNumber="341" Mandatory="No" Role="Subject-Level Period, Subperiod, and Phase Timing Variables" val:Core="Permissible"/>
                <ItemRef ItemOID="IT.ADNCA.P#S#SDT" OrderNumber="342" Mandatory="No" Role="Subject-Level Period, Subperiod, and Phase Timing Variables" val:Core="Permissible"/>
                <ItemRef ItemOID="IT.ADNCA.P#S#STM" OrderNumber="343" Mandatory="No" Role="Subject-Level Period, Subperiod, and Phase Timing Variables" val:Core="Permissible"/>
                <ItemRef ItemOID="IT.ADNCA.P#S#SDM" OrderNumber="344" Mandatory="No" Role="Subject-Level Period, Subperiod, and Phase Timing Variables" val:Core="Permissible"/>
                <ItemRef ItemOID="IT.ADNCA.P#S#SDF" OrderNumber="345" Mandatory="No" Role="Subject-Level Period, Subperiod, and Phase Timing Variables" val:Core="Permissible"/>
                <ItemRef ItemOID="IT.ADNCA.P#S#STF" OrderNumber="346" Mandatory="No" Role="Subject-Level Period, Subperiod, and Phase Timing Variables" val:Core="Permissible"/>
                <ItemRef ItemOID="IT.ADNCA.P#S#EDT" OrderNumber="347" Mandatory="No" Role="Subject-Level Period, Subperiod, and Phase Timing Variables" val:Core="Permissible"/>
                <ItemRef ItemOID="IT.ADNCA.P#S#ETM" OrderNumber="348" Mandatory="No" Role="Subject-Level Period, Subperiod, and Phase Timing Variables" val:Core="Permissible"/>
                <ItemRef ItemOID="IT.ADNCA.P#S#EDM" OrderNumber="349" Mandatory="No" Role="Subject-Level Period, Subperiod, and Phase Timing Variables" val:Core="Permissible"/>
                <ItemRef ItemOID="IT.ADNCA.P#S#EDF" OrderNumber="350" Mandatory="No" Role="Subject-Level Period, Subperiod, and Phase Timing Variables" val:Core="Permissible"/>
                <ItemRef ItemOID="IT.ADNCA.P#S#ETF" OrderNumber="351" Mandatory="No" Role="Subject-Level Period, Subperiod, and Phase Timing Variables" val:Core="Permissible"/>
                <ItemRef ItemOID="IT.ADNCA.APHASE#" OrderNumber="352" Mandatory="No" Role="Subject-Level Period, Subperiod, and Phase Timing Variables" val:Core="Permissible"/>
                <ItemRef ItemOID="IT.ADNCA.PH#SDT" OrderNumber="353" Mandatory="No" Role="Subject-Level Period, Subperiod, and Phase Timing Variables" val:Core="Permissible"/>
                <ItemRef ItemOID="IT.ADNCA.PH#STM" OrderNumber="354" Mandatory="No" Role="Subject-Level Period, Subperiod, and Phase Timing Variables" val:Core="Permissible"/>
                <ItemRef ItemOID="IT.ADNCA.PH#SDTM" OrderNumber="355" Mandatory="No" Role="Subject-Level Period, Subperiod, and Phase Timing Variables" val:Core="Permissible"/>
                <ItemRef ItemOID="IT.ADNCA.PH#SDTF" OrderNumber="356" Mandatory="No" Role="Subject-Level Period, Subperiod, and Phase Timing Variables" val:Core="Permissible"/>
                <ItemRef ItemOID="IT.ADNCA.PH#STMF" OrderNumber="357" Mandatory="No" Role="Subject-Level Period, Subperiod, and Phase Timing Variables" val:Core="Permissible"/>
                <ItemRef ItemOID="IT.ADNCA.PH#EDT" OrderNumber="358" Mandatory="No" Role="Subject-Level Period, Subperiod, and Phase Timing Variables" val:Core="Permissible"/>
                <ItemRef ItemOID="IT.ADNCA.PH#ETM" OrderNumber="359" Mandatory="No" Role="Subject-Level Period, Subperiod, and Phase Timing Variables" val:Core="Permissible"/>
                <ItemRef ItemOID="IT.ADNCA.PH#EDTM" OrderNumber="360" Mandatory="No" Role="Subject-Level Period, Subperiod, and Phase Timing Variables" val:Core="Permissible"/>
                <ItemRef ItemOID="IT.ADNCA.PH#EDTF" OrderNumber="361" Mandatory="No" Role="Subject-Level Period, Subperiod, and Phase Timing Variables" val:Core="Permissible"/>
                <ItemRef ItemOID="IT.ADNCA.PH#ETMF" OrderNumber="362" Mandatory="No" Role="Subject-Level Period, Subperiod, and Phase Timing Variables" val:Core="Permissible"/>
                <ItemRef ItemOID="IT.ADNCA.EOSSTT" OrderNumber="363" Mandatory="No" Role="ADSL Subject-Level Trial Experience Variables" val:Core="Permissible"/>
                <ItemRef ItemOID="IT.ADNCA.EOSDT" OrderNumber="364" Mandatory="No" Role="ADSL Subject-Level Trial Experience Variables" val:Core="Permissible"/>
                <ItemRef ItemOID="IT.ADNCA.DCSREAS" OrderNumber="365" Mandatory="No" Role="ADSL Subject-Level Trial Experience Variables" val:Core="Permissible"/>
                <ItemRef ItemOID="IT.ADNCA.DCSREASP" OrderNumber="366" Mandatory="No" Role="ADSL Subject-Level Trial Experience Variables" val:Core="Permissible"/>
                <ItemRef ItemOID="IT.ADNCA.EOTSTT" OrderNumber="367" Mandatory="No" Role="ADSL Subject-Level Trial Experience Variables" val:Core="Permissible"/>
                <ItemRef ItemOID="IT.ADNCA.DCTREAS" OrderNumber="368" Mandatory="No" Role="ADSL Subject-Level Trial Experience Variables" val:Core="Permissible"/>
                <ItemRef ItemOID="IT.ADNCA.DCTREASP" OrderNumber="369" Mandatory="No" Role="ADSL Subject-Level Trial Experience Variables" val:Core="Permissible"/>
                <ItemRef ItemOID="IT.ADNCA.EOT#STT" OrderNumber="370" Mandatory="No" Role="ADSL Subject-Level Trial Experience Variables" val:Core="Permissible"/>
                <ItemRef ItemOID="IT.ADNCA.DCT#RS" OrderNumber="371" Mandatory="No" Role="ADSL Subject-Level Trial Experience Variables" val:Core="Permissible"/>
                <ItemRef ItemOID="IT.ADNCA.DCT#RSP" OrderNumber="372" Mandatory="No" Role="ADSL Subject-Level Trial Experience Variables" val:Core="Permissible"/>
                <ItemRef ItemOID="IT.ADNCA.EOP#STT" OrderNumber="373" Mandatory="No" Role="ADSL Subject-Level Trial Experience Variables" val:Core="Permissible"/>
                <ItemRef ItemOID="IT.ADNCA.DCP#RS" OrderNumber="374" Mandatory="No" Role="ADSL Subject-Level Trial Experience Variables" val:Core="Permissible"/>
                <ItemRef ItemOID="IT.ADNCA.DCP#RSP" OrderNumber="375" Mandatory="No" Role="ADSL Subject-Level Trial Experience Variables" val:Core="Permissible"/>
                <ItemRef ItemOID="IT.ADNCA.RFICDT" OrderNumber="376" Mandatory="No" Role="ADSL Subject-Level Trial Experience Variables" val:Core="Permissible"/>
                <ItemRef ItemOID="IT.ADNCA.ENRLDT" OrderNumber="377" Mandatory="No" Role="ADSL Subject-Level Trial Experience Variables" val:Core="Permissible"/>
                <ItemRef ItemOID="IT.ADNCA.RANDDT" OrderNumber="378" Mandatory="No" Role="ADSL Subject-Level Trial Experience Variables" val:Core="Permissible"/>
                <ItemRef ItemOID="IT.ADNCA.RFIC#DT" OrderNumber="379" Mandatory="No" Role="ADSL Subject-Level Trial Experience Variables" val:Core="Permissible"/>
                <ItemRef ItemOID="IT.ADNCA.ENRL#DT" OrderNumber="380" Mandatory="No" Role="ADSL Subject-Level Trial Experience Variables" val:Core="Permissible"/>
                <ItemRef ItemOID="IT.ADNCA.RAND#DT" OrderNumber="381" Mandatory="No" Role="ADSL Subject-Level Trial Experience Variables" val:Core="Permissible"/>
                <ItemRef ItemOID="IT.ADNCA.LSTALVDT" OrderNumber="382" Mandatory="No" Role="ADSL Subject-Level Trial Experience Variables" val:Core="Permissible"/>
                <ItemRef ItemOID="IT.ADNCA.TRCMP" OrderNumber="383" Mandatory="No" Role="ADSL Subject-Level Trial Experience Variables" val:Core="Permissible"/>
                <ItemRef ItemOID="IT.ADNCA.TRCMPG#" OrderNumber="384" Mandatory="No" Role="ADSL Subject-Level Trial Experience Variables" val:Core="Permissible"/>
                <ItemRef ItemOID="IT.ADNCA.TRCMPG#N" OrderNumber="385" Mandatory="No" Role="ADSL Subject-Level Trial Experience Variables" val:Core="Permissible"/>
                <ItemRef ItemOID="IT.ADNCA.TR#DURD" OrderNumber="386" Mandatory="No" Role="ADSL Subject-Level Trial Experience Variables" val:Core="Permissible"/>
                <ItemRef ItemOID="IT.ADNCA.TR#DURM" OrderNumber="387" Mandatory="No" Role="ADSL Subject-Level Trial Experience Variables" val:Core="Permissible"/>
                <ItemRef ItemOID="IT.ADNCA.TR#DURY" OrderNumber="388" Mandatory="No" Role="ADSL Subject-Level Trial Experience Variables" val:Core="Permissible"/>
                <ItemRef ItemOID="IT.ADNCA.TRTDURD" OrderNumber="389" Mandatory="No" Role="ADSL Subject-Level Trial Experience Variables" val:Core="Permissible"/>
                <ItemRef ItemOID="IT.ADNCA.TRTDURM" OrderNumber="390" Mandatory="No" Role="ADSL Subject-Level Trial Experience Variables" val:Core="Permissible"/>
                <ItemRef ItemOID="IT.ADNCA.TRTDURY" OrderNumber="391" Mandatory="No" Role="ADSL Subject-Level Trial Experience Variables" val:Core="Permissible"/>
                <ItemRef ItemOID="IT.ADNCA.DTHDT" OrderNumber="392" Mandatory="No" Role="ADSL Subject-Level Trial Experience Variables" val:Core="Permissible"/>
                <ItemRef ItemOID="IT.ADNCA.DTHDTF" OrderNumber="393" Mandatory="No" Role="ADSL Subject-Level Trial Experience Variables" val:Core="Permissible"/>
                <ItemRef ItemOID="IT.ADNCA.DTHCAUS" OrderNumber="394" Mandatory="No" Role="ADSL Subject-Level Trial Experience Variables" val:Core="Permissible"/>
                <ItemRef ItemOID="IT.ADNCA.DTHCAUSN" OrderNumber="395" Mandatory="No" Role="ADSL Subject-Level Trial Experience Variables" val:Core="Permissible"/>
                <ItemRef ItemOID="IT.ADNCA.DTHCGR#" OrderNumber="396" Mandatory="No" Role="ADSL Subject-Level Trial Experience Variables" val:Core="Permissible"/>
                <ItemRef ItemOID="IT.ADNCA.DTHCGR#N" OrderNumber="397" Mandatory="No" Role="ADSL Subject-Level Trial Experience Variables" val:Core="Permissible"/>
                <ItemRef ItemOID="IT.ADNCA.*" OrderNumber="398" Mandatory="No" Role="Representor of any additional variable"/>
                <def:leaf ID="Location.ADNCA" xlink:href="adnca.xpt">
                    <def:title>adnca.xpt</def:title>
                </def:leaf>
                <val:ValidationRuleRef RuleID="AD0005B" Active="Yes"/>
                <val:ValidationRuleRef RuleID="AD0006B" Active="Yes"/>
                <val:ValidationRuleRef RuleID="AD0007" Active="Yes"/>
                <val:ValidationRuleRef RuleID="AD0010" Active="Yes"/>
                <val:ValidationRuleRef RuleID="AD0011" Active="Yes"/>
                <val:ValidationRuleRef RuleID="AD0012" Active="Yes"/>
                <val:ValidationRuleRef RuleID="AD0013" Active="Yes"/>
                <val:ValidationRuleRef RuleID="AD0018" Active="Yes"/>
                <val:ValidationRuleRef RuleID="AD0019" Active="Yes"/>
                <val:ValidationRuleRef RuleID="AD0037B" Active="Yes"/>
                <val:ValidationRuleRef RuleID="AD0038B" Active="Yes"/>
                <val:ValidationRuleRef RuleID="AD0041" Active="Yes"/>
                <val:ValidationRuleRef RuleID="AD0041A" Active="Yes"/>
                <val:ValidationRuleRef RuleID="AD0042" Active="Yes"/>
                <val:ValidationRuleRef RuleID="AD0042A" Active="Yes"/>
                <val:ValidationRuleRef RuleID="AD0043" Active="Yes"/>
                <val:ValidationRuleRef RuleID="AD0043A" Active="Yes"/>
                <val:ValidationRuleRef RuleID="AD0044" Active="Yes"/>
                <val:ValidationRuleRef RuleID="AD0045" Active="Yes"/>
                <val:ValidationRuleRef RuleID="AD0046" Active="Yes"/>
                <val:ValidationRuleRef RuleID="AD0047" Active="Yes"/>
                <val:ValidationRuleRef RuleID="AD0058" Active="Yes"/>
                <val:ValidationRuleRef RuleID="AD0059" Active="Yes"/>
                <val:ValidationRuleRef RuleID="AD0060" Active="Yes"/>
                <val:ValidationRuleRef RuleID="AD0090" Active="Yes"/>
                <val:ValidationRuleRef RuleID="AD0092B" Active="Yes"/>
                <val:ValidationRuleRef RuleID="AD0093B" Active="Yes"/>
                <val:ValidationRuleRef RuleID="AD0095B" Active="Yes"/>
                <val:ValidationRuleRef RuleID="AD0096B" Active="Yes"/>
                <val:ValidationRuleRef RuleID="AD0097" Active="Yes"/>
                <val:ValidationRuleRef RuleID="AD0098" Active="Yes"/>
                <val:ValidationRuleRef RuleID="AD0099" Active="Yes"/>
                <val:ValidationRuleRef RuleID="AD0102" Active="Yes"/>
                <val:ValidationRuleRef RuleID="AD0103" Active="Yes"/>
                <val:ValidationRuleRef RuleID="AD0104" Active="Yes"/>
                <val:ValidationRuleRef RuleID="AD0105B" Active="Yes"/>
                <val:ValidationRuleRef RuleID="AD0106B" Active="Yes"/>
                <val:ValidationRuleRef RuleID="AD0109B" Active="Yes"/>
                <val:ValidationRuleRef RuleID="AD0110B" Active="Yes"/>
                <val:ValidationRuleRef RuleID="AD0111" Active="Yes"/>
                <val:ValidationRuleRef RuleID="AD0112" Active="Yes"/>
                <val:ValidationRuleRef RuleID="AD0113" Active="Yes"/>
                <val:ValidationRuleRef RuleID="AD0117B" Active="Yes"/>
                <val:ValidationRuleRef RuleID="AD0118B" Active="Yes"/>
                <val:ValidationRuleRef RuleID="AD0121" Active="Yes"/>
                <val:ValidationRuleRef RuleID="AD0122" Active="Yes"/>
                <val:ValidationRuleRef RuleID="AD0123" Active="Yes"/>
                <val:ValidationRuleRef RuleID="AD0124" Active="Yes"/>
                <val:ValidationRuleRef RuleID="AD0125B" Active="Yes"/>
                <val:ValidationRuleRef RuleID="AD0126B" Active="Yes"/>
                <val:ValidationRuleRef RuleID="AD0127" Active="Yes"/>
                <val:ValidationRuleRef RuleID="AD0127A" Active="Yes"/>
                <val:ValidationRuleRef RuleID="AD0129" Active="Yes"/>
                <val:ValidationRuleRef RuleID="AD0130" Active="Yes"/>
                <val:ValidationRuleRef RuleID="AD0132" Active="Yes"/>
                <val:ValidationRuleRef RuleID="AD0132A" Active="Yes"/>
                <val:ValidationRuleRef RuleID="AD0132B" Active="Yes"/>
                <val:ValidationRuleRef RuleID="AD0133" Active="Yes"/>
                <val:ValidationRuleRef RuleID="AD0133A" Active="Yes"/>
                <val:ValidationRuleRef RuleID="AD0133B" Active="Yes"/>
                <val:ValidationRuleRef RuleID="AD0133C" Active="Yes"/>
                <val:ValidationRuleRef RuleID="AD0134" Active="Yes"/>
                <val:ValidationRuleRef RuleID="AD0134A" Active="Yes"/>
                <val:ValidationRuleRef RuleID="AD0134B" Active="Yes"/>
                <val:ValidationRuleRef RuleID="AD0134C" Active="Yes"/>
                <val:ValidationRuleRef RuleID="AD0135B" Active="Yes"/>
                <val:ValidationRuleRef RuleID="AD0136B" Active="Yes"/>
                <val:ValidationRuleRef RuleID="AD0137" Active="Yes"/>
                <val:ValidationRuleRef RuleID="AD0141" Active="Yes"/>
                <val:ValidationRuleRef RuleID="AD0142" Active="Yes"/>
                <val:ValidationRuleRef RuleID="AD0143" Active="Yes"/>
                <val:ValidationRuleRef RuleID="AD0146B" Active="Yes"/>
                <val:ValidationRuleRef RuleID="AD0147B" Active="Yes"/>
                <val:ValidationRuleRef RuleID="AD0149B" Active="Yes"/>
                <val:ValidationRuleRef RuleID="AD0150" Active="Yes"/>
                <val:ValidationRuleRef RuleID="AD0151" Active="Yes"/>
                <val:ValidationRuleRef RuleID="AD0152" Active="Yes"/>
                <val:ValidationRuleRef RuleID="AD0154" Active="Yes"/>
                <val:ValidationRuleRef RuleID="AD0156" Active="Yes"/>
                <val:ValidationRuleRef RuleID="AD0157" Active="Yes"/>
                <val:ValidationRuleRef RuleID="AD0159" Active="Yes"/>
                <val:ValidationRuleRef RuleID="AD0160" Active="Yes"/>
                <val:ValidationRuleRef RuleID="AD0163" Active="Yes"/>
                <val:ValidationRuleRef RuleID="AD0164" Active="Yes"/>
                <val:ValidationRuleRef RuleID="AD0165" Active="Yes"/>
                <val:ValidationRuleRef RuleID="AD0166" Active="Yes"/>
                <val:ValidationRuleRef RuleID="AD0167" Active="Yes"/>
                <val:ValidationRuleRef RuleID="AD0168" Active="Yes"/>
                <val:ValidationRuleRef RuleID="AD0169" Active="Yes"/>
                <val:ValidationRuleRef RuleID="AD0176" Active="Yes"/>
                <val:ValidationRuleRef RuleID="AD0178" Active="Yes"/>
                <val:ValidationRuleRef RuleID="AD0196" Active="Yes"/>
                <val:ValidationRuleRef RuleID="AD0198" Active="Yes"/>
                <val:ValidationRuleRef RuleID="AD0200" Active="Yes"/>
                <val:ValidationRuleRef RuleID="AD0201" Active="Yes"/>
                <val:ValidationRuleRef RuleID="AD0211" Active="Yes"/>
                <val:ValidationRuleRef RuleID="AD0212" Active="Yes"/>
                <val:ValidationRuleRef RuleID="AD0221" Active="Yes"/>
                <val:ValidationRuleRef RuleID="AD0223" Active="Yes"/>
                <val:ValidationRuleRef RuleID="AD0225" Active="Yes"/>
                <val:ValidationRuleRef RuleID="AD0225A" Active="Yes"/>
                <val:ValidationRuleRef RuleID="AD0237B" Active="Yes"/>
                <val:ValidationRuleRef RuleID="AD0238B" Active="Yes"/>
                <val:ValidationRuleRef RuleID="AD0239" Active="Yes"/>
                <val:ValidationRuleRef RuleID="AD0240B" Active="Yes"/>
                <val:ValidationRuleRef RuleID="AD0241B" Active="Yes"/>
                <val:ValidationRuleRef RuleID="AD0245" Active="Yes"/>
                <val:ValidationRuleRef RuleID="AD0246" Active="Yes"/>
                <val:ValidationRuleRef RuleID="AD0247" Active="Yes"/>
                <val:ValidationRuleRef RuleID="AD0250" Active="Yes"/>
                <val:ValidationRuleRef RuleID="AD0251" Active="Yes"/>
                <val:ValidationRuleRef RuleID="AD0252" Active="Yes"/>
                <val:ValidationRuleRef RuleID="AD0256" Active="Yes"/>
                <val:ValidationRuleRef RuleID="AD0269" Active="Yes"/>
                <val:ValidationRuleRef RuleID="AD0322" Active="Yes"/>
                <val:ValidationRuleRef RuleID="AD0323" Active="Yes"/>
                <val:ValidationRuleRef RuleID="AD0324" Active="Yes"/>
                <val:ValidationRuleRef RuleID="AD0325" Active="Yes"/>
                <val:ValidationRuleRef RuleID="AD0326" Active="Yes"/>
                <val:ValidationRuleRef RuleID="AD0327" Active="Yes"/>
                <val:ValidationRuleRef RuleID="AD0328" Active="Yes"/>
                <val:ValidationRuleRef RuleID="AD0329" Active="Yes"/>
                <val:ValidationRuleRef RuleID="AD0330" Active="Yes"/>
                <val:ValidationRuleRef RuleID="AD0331" Active="Yes"/>
                <val:ValidationRuleRef RuleID="AD0332" Active="Yes"/>
                <val:ValidationRuleRef RuleID="AD0333" Active="Yes"/>
                <val:ValidationRuleRef RuleID="AD0334" Active="Yes"/>
                <val:ValidationRuleRef RuleID="AD0337" Active="Yes"/>
                <val:ValidationRuleRef RuleID="AD0338" Active="Yes"/>
                <val:ValidationRuleRef RuleID="AD0339" Active="Yes"/>
                <val:ValidationRuleRef RuleID="AD0340" Active="Yes"/>
                <val:ValidationRuleRef RuleID="AD0341" Active="Yes"/>
                <val:ValidationRuleRef RuleID="AD0342" Active="Yes"/>
                <val:ValidationRuleRef RuleID="AD0343" Active="Yes"/>
                <val:ValidationRuleRef RuleID="AD0344" Active="Yes"/>
                <val:ValidationRuleRef RuleID="AD0345" Active="Yes"/>
                <val:ValidationRuleRef RuleID="AD0346" Active="Yes"/>
                <val:ValidationRuleRef RuleID="AD0347" Active="Yes"/>
                <val:ValidationRuleRef RuleID="AD0348" Active="Yes"/>
                <val:ValidationRuleRef RuleID="AD0349" Active="Yes"/>
                <val:ValidationRuleRef RuleID="AD0350" Active="Yes"/>
                <val:ValidationRuleRef RuleID="AD0351" Active="Yes"/>
                <val:ValidationRuleRef RuleID="AD0352" Active="Yes"/>
                <val:ValidationRuleRef RuleID="AD0353" Active="Yes"/>
                <val:ValidationRuleRef RuleID="AD0361" Active="Yes"/>
                <val:ValidationRuleRef RuleID="AD0362" Active="Yes"/>
                <val:ValidationRuleRef RuleID="AD0369" Active="Yes"/>
                <val:ValidationRuleRef RuleID="AD0370" Active="Yes"/>
                <val:ValidationRuleRef RuleID="AD0376" Active="Yes"/>
                <val:ValidationRuleRef RuleID="AD0381" Active="Yes"/>
                <val:ValidationRuleRef RuleID="AD0382" Active="Yes"/>
                <val:ValidationRuleRef RuleID="AD0384" Active="Yes"/>
                <val:ValidationRuleRef RuleID="AD0388" Active="Yes"/>
                <val:ValidationRuleRef RuleID="AD0396" Active="Yes"/>
                <val:ValidationRuleRef RuleID="AD0400" Active="Yes"/>
                <val:ValidationRuleRef RuleID="AD0401" Active="Yes"/>
                <val:ValidationRuleRef RuleID="AD0402" Active="Yes"/>
                <val:ValidationRuleRef RuleID="AD0403" Active="Yes"/>
                <val:ValidationRuleRef RuleID="AD0405" Active="Yes"/>
                <val:ValidationRuleRef RuleID="AD0450" Active="Yes"/>
                <val:ValidationRuleRef RuleID="AD0451" Active="Yes"/>
                <val:ValidationRuleRef RuleID="AD0482" Active="Yes"/>
                <val:ValidationRuleRef RuleID="AD0483" Active="Yes"/>
                <val:ValidationRuleRef RuleID="AD0484" Active="Yes"/>
                <val:ValidationRuleRef RuleID="AD0485" Active="Yes"/>
                <val:ValidationRuleRef RuleID="AD0492" Active="Yes"/>
                <val:ValidationRuleRef RuleID="AD0499" Active="Yes"/>
                <val:ValidationRuleRef RuleID="AD0501" Active="Yes"/>
                <val:ValidationRuleRef RuleID="AD0503" Active="Yes"/>
                <val:ValidationRuleRef RuleID="AD0504" Active="Yes"/>
                <val:ValidationRuleRef RuleID="AD0505" Active="Yes"/>
                <val:ValidationRuleRef RuleID="AD0507" Active="Yes"/>
                <val:ValidationRuleRef RuleID="AD0508" Active="Yes"/>
                <val:ValidationRuleRef RuleID="AD0509" Active="Yes"/>
                <val:ValidationRuleRef RuleID="AD0510" Active="Yes"/>
                <val:ValidationRuleRef RuleID="AD0511" Active="Yes"/>
                <val:ValidationRuleRef RuleID="AD0513" Active="Yes"/>
                <val:ValidationRuleRef RuleID="AD0514" Active="Yes"/>
                <val:ValidationRuleRef RuleID="AD0515" Active="Yes"/>
                <val:ValidationRuleRef RuleID="AD0516" Active="Yes"/>
                <val:ValidationRuleRef RuleID="AD0517" Active="Yes"/>
                <val:ValidationRuleRef RuleID="AD0519" Active="Yes"/>
                <val:ValidationRuleRef RuleID="AD0520" Active="Yes"/>
                <val:ValidationRuleRef RuleID="AD0543" Active="Yes"/>
                <val:ValidationRuleRef RuleID="AD0544" Active="Yes"/>
                <val:ValidationRuleRef RuleID="AD0545" Active="Yes"/>
                <val:ValidationRuleRef RuleID="AD0546" Active="Yes"/>
                <val:ValidationRuleRef RuleID="AD0552" Active="Yes"/>
                <val:ValidationRuleRef RuleID="AD0565" Active="Yes"/>
                <val:ValidationRuleRef RuleID="AD0566" Active="Yes"/>
                <val:ValidationRuleRef RuleID="AD0582" Active="Yes"/>
                <val:ValidationRuleRef RuleID="AD0584" Active="Yes"/>
                <val:ValidationRuleRef RuleID="AD0585" Active="Yes"/>
                <val:ValidationRuleRef RuleID="AD0586" Active="Yes"/>
                <val:ValidationRuleRef RuleID="AD0588" Active="Yes"/>
                <val:ValidationRuleRef RuleID="AD0589" Active="Yes"/>
                <val:ValidationRuleRef RuleID="AD0605" Active="Yes"/>
                <val:ValidationRuleRef RuleID="AD0607" Active="Yes"/>
                <val:ValidationRuleRef RuleID="AD0609" Active="Yes"/>
                <val:ValidationRuleRef RuleID="AD0611" Active="Yes"/>
                <val:ValidationRuleRef RuleID="AD0613" Active="Yes"/>
                <val:ValidationRuleRef RuleID="AD0615" Active="Yes"/>
                <val:ValidationRuleRef RuleID="AD0658" Active="Yes"/>
                <val:ValidationRuleRef RuleID="AD0659" Active="Yes"/>
                <val:ValidationRuleRef RuleID="AD0660" Active="Yes"/>
                <val:ValidationRuleRef RuleID="AD0661" Active="Yes"/>
                <val:ValidationRuleRef RuleID="AD0662" Active="Yes"/>
                <val:ValidationRuleRef RuleID="AD0666" Active="Yes"/>
                <val:ValidationRuleRef RuleID="AD0667" Active="Yes"/>
                <val:ValidationRuleRef RuleID="AD0792" Active="Yes"/>
                <val:ValidationRuleRef RuleID="AD0793" Active="Yes"/>
                <val:ValidationRuleRef RuleID="AD0794" Active="Yes"/>
                <val:ValidationRuleRef RuleID="AD0891" Active="Yes"/>
                <val:ValidationRuleRef RuleID="AD0892" Active="Yes"/>
                <val:ValidationRuleRef RuleID="AD0893" Active="Yes"/>
                <val:ValidationRuleRef RuleID="AD0894" Active="Yes"/>
                <val:ValidationRuleRef RuleID="AD0895" Active="Yes"/>
                <val:ValidationRuleRef RuleID="AD1011" Active="Yes"/>
                <val:ValidationRuleRef RuleID="AD1012A" Active="Yes"/>
                <val:ValidationRuleRef RuleID="AD1018" Active="Yes"/>
                <val:ValidationRuleRef RuleID="CT2001" Active="Yes"/>
                <val:ValidationRuleRef RuleID="CT2002" Active="Yes"/>
                <val:ValidationRuleRef RuleID="CT2003" Active="Yes"/>
                <val:ValidationRuleRef RuleID="CT2004" Active="Yes"/>
                <val:ValidationRuleRef RuleID="CT2005" Active="Yes"/>
                <val:ValidationRuleRef RuleID="CT2006" Active="Yes"/>
                <val:ValidationRuleRef RuleID="SD0001" Active="Yes"/>
                <val:ValidationRuleRef RuleID="SD0037" Active="Yes"/>
                <val:ValidationRuleRef RuleID="SD0054" Active="Yes"/>
                <val:ValidationRuleRef RuleID="SD0059" Active="Yes"/>
                <val:ValidationRuleRef RuleID="SD0060" Active="Yes"/>
                <val:ValidationRuleRef RuleID="SD0062" Active="Yes"/>
                <val:ValidationRuleRef RuleID="SD1063" Active="Yes"/>
                <val:ValidationRuleRef RuleID="SD1071" Active="Yes"/>
                <val:ValidationRuleRef RuleID="SD1152" Active="Yes"/>
                <val:ValidationRuleRef RuleID="SD1228" Active="Yes"/>
                <val:ValidationRuleRef RuleID="SD1229" Active="Yes"/>
                <val:ValidationRuleRef RuleID="SD1230" Active="Yes"/>
                <val:ValidationRuleRef RuleID="SD1231" Active="Yes"/>
                <val:ValidationRuleRef RuleID="SD1324" Active="Yes"/>
                <val:ValidationRuleRef RuleID="SD1325" Active="Yes"/>
                <val:ValidationRuleRef RuleID="SD1474" Active="Yes"/>
                <val:ValidationRuleRef RuleID="SD1475" Active="Yes"/>
            </ItemGroupDef>
            <ItemGroupDef OID="IG.ADPPK" Name="ADPPK" Repeating="Yes" IsReferenceData="No" Purpose="Analysis" def:Structure="One record per subject per parameter (analyte) per analysis timepoint per event (dosing or observation)" def:Class="BASIC DATA STRUCTURE" def:ArchiveLocationID="Location.ADPPK">
                <Description>
                    <TranslatedText xml:lang="en">Population PK Analysis Dataset</TranslatedText>
                </Description>
                <ItemRef ItemOID="IT.ADPPK.PROJID" OrderNumber="1" Mandatory="No" Role="Population Pharmacokinetics Analysis Variables" val:Core="Permissible"/>
                <ItemRef ItemOID="IT.ADPPK.PROJIDN" OrderNumber="2" Mandatory="No" Role="Population Pharmacokinetics Analysis Variables" val:Core="Permissible"/>
                <ItemRef ItemOID="IT.ADPPK.STUDYID" OrderNumber="3" Mandatory="Yes" KeySequence="1" Role="Population Pharmacokinetics Analysis Variables" val:Core="Required"/>
                <ItemRef ItemOID="IT.ADPPK.STUDYIDN" OrderNumber="4" Mandatory="No" Role="Population Pharmacokinetics Analysis Variables" val:Core="Permissible"/>
                <ItemRef ItemOID="IT.ADPPK.PART" OrderNumber="5" Mandatory="No" Role="Population Pharmacokinetics Analysis Variables" val:Core="Conditional"/>
                <ItemRef ItemOID="IT.ADPPK.SUBJTYP" OrderNumber="6" Mandatory="No" Role="Population Pharmacokinetics Analysis Variables" val:Core="Permissible"/>
                <ItemRef ItemOID="IT.ADPPK.SUBJTYPC" OrderNumber="7" Mandatory="No" Role="Population Pharmacokinetics Analysis Variables" val:Core="Permissible"/>
                <ItemRef ItemOID="IT.ADPPK.USUBJID" OrderNumber="8" Mandatory="Yes" KeySequence="2" Role="Population Pharmacokinetics Analysis Variables" val:Core="Required"/>
                <ItemRef ItemOID="IT.ADPPK.USUBJIDN" OrderNumber="9" Mandatory="Yes" Role="Population Pharmacokinetics Analysis Variables" val:Core="Required"/>
                <ItemRef ItemOID="IT.ADPPK.SUBJID" OrderNumber="10" Mandatory="No" Role="Population Pharmacokinetics Analysis Variables" val:Core="Permissible"/>
                <ItemRef ItemOID="IT.ADPPK.SUBJIDN" OrderNumber="11" Mandatory="No" Role="Population Pharmacokinetics Analysis Variables" val:Core="Permissible"/>
                <ItemRef ItemOID="IT.ADPPK.SITEID" OrderNumber="12" Mandatory="No" Role="Population Pharmacokinetics Analysis Variables" val:Core="Permissible"/>
                <ItemRef ItemOID="IT.ADPPK.SITEIDN" OrderNumber="13" Mandatory="No" Role="Population Pharmacokinetics Analysis Variables" val:Core="Permissible"/>
                <ItemRef ItemOID="IT.ADPPK.RECSEQ" OrderNumber="14" Mandatory="No" Role="Population Pharmacokinetics Analysis Variables" val:Core="Permissible"/>
                <ItemRef ItemOID="IT.ADPPK.ASEQ" OrderNumber="15" Mandatory="No" Role="Identifier Variables for BDS Datasets" val:Core="Permissible"/>
                <ItemRef ItemOID="IT.ADPPK.TRTP" OrderNumber="16" Mandatory="No" Role="Record-Level Treatment Variables for BDS Datasets" val:Core="Conditional"/>
                <ItemRef ItemOID="IT.ADPPK.TRTPN" OrderNumber="17" Mandatory="No" Role="Record-Level Treatment Variables for BDS Datasets" val:Core="Permissible"/>
                <ItemRef ItemOID="IT.ADPPK.TRTA" OrderNumber="18" Mandatory="No" Role="Record-Level Treatment Variables for BDS Datasets" val:Core="Conditional"/>
                <ItemRef ItemOID="IT.ADPPK.TRTAN" OrderNumber="19" Mandatory="No" Role="Record-Level Treatment Variables for BDS Datasets" val:Core="Permissible"/>
                <ItemRef ItemOID="IT.ADPPK.TRT#P" OrderNumber="20" Mandatory="No" Role="Treatment" val:Core="Permissible"/>
                <ItemRef ItemOID="IT.ADPPK.TRT#PN" OrderNumber="21" Mandatory="No" Role="ADSL Treatment Variables" val:Core="Permissible"/>
                <ItemRef ItemOID="IT.ADPPK.TRT#A" OrderNumber="22" Mandatory="No" Role="Treatment" val:Core="Permissible"/>
                <ItemRef ItemOID="IT.ADPPK.TRT#AN" OrderNumber="23" Mandatory="No" Role="ADSL Treatment Variables" val:Core="Permissible"/>
                <ItemRef ItemOID="IT.ADPPK.TRTPG#" OrderNumber="24" Mandatory="No" Role="Record-Level Treatment Variables for BDS Datasets" val:Core="Permissible"/>
                <ItemRef ItemOID="IT.ADPPK.TRTPG#N" OrderNumber="25" Mandatory="No" Role="Record-Level Treatment Variables for BDS Datasets" val:Core="Permissible"/>
                <ItemRef ItemOID="IT.ADPPK.TRTAG#" OrderNumber="26" Mandatory="No" Role="Record-Level Treatment Variables for BDS Datasets" val:Core="Conditional"/>
                <ItemRef ItemOID="IT.ADPPK.TRTAG#N" OrderNumber="27" Mandatory="No" Role="Record-Level Treatment Variables for BDS Datasets" val:Core="Permissible"/>
                <ItemRef ItemOID="IT.ADPPK.AFRLT" OrderNumber="28" Mandatory="Yes" KeySequence="3" Role="Population Pharmacokinetics Analysis Variables" val:Core="Required"/>
                <ItemRef ItemOID="IT.ADPPK.RLTU" OrderNumber="29" Mandatory="No" Role="Population Pharmacokinetics Analysis Variables" val:Core="Permissible"/>
                <ItemRef ItemOID="IT.ADPPK.APRLT" OrderNumber="30" Mandatory="No" Role="Population Pharmacokinetics Analysis Variables" val:Core="Permissible"/>
                <ItemRef ItemOID="IT.ADPPK.NFRLT" OrderNumber="31" Mandatory="No" Role="Population Pharmacokinetics Analysis Variables" val:Core="Permissible"/>
                <ItemRef ItemOID="IT.ADPPK.NPRLT" OrderNumber="32" Mandatory="No" Role="Population Pharmacokinetics Analysis Variables" val:Core="Permissible"/>
                <ItemRef ItemOID="IT.ADPPK.OCC" OrderNumber="33" Mandatory="No" Role="Population Pharmacokinetics Analysis Variables" val:Core="Permissible"/>
                <ItemRef ItemOID="IT.ADPPK.EXCLF" OrderNumber="34" Mandatory="No" Role="Population Pharmacokinetics Analysis Variables" val:Core="Conditional"/>
                <ItemRef ItemOID="IT.ADPPK.EXCLFCOM" OrderNumber="35" Mandatory="No" Role="Population Pharmacokinetics Analysis Variables" val:Core="Conditional"/>
                <ItemRef ItemOID="IT.ADPPK.FLGREAS" OrderNumber="36" Mandatory="No" Role="Population Pharmacokinetics Analysis Variables" val:Core="Permissible"/>
                <ItemRef ItemOID="IT.ADPPK.FLGREASC" OrderNumber="37" Mandatory="No" Role="Population Pharmacokinetics Analysis Variables" val:Core="Permissible"/>
                <ItemRef ItemOID="IT.ADPPK.EVID" OrderNumber="38" Mandatory="Yes" KeySequence="5" Role="Population Pharmacokinetics Analysis Variables" val:Core="Required"/>
                <ItemRef ItemOID="IT.ADPPK.DVID" OrderNumber="39" Mandatory="No" KeySequence="4" Role="Population Pharmacokinetics Analysis Variables" val:Core="Permissible"/>
                <ItemRef ItemOID="IT.ADPPK.DVIDN" OrderNumber="40" Mandatory="No" Role="Population Pharmacokinetics Analysis Variables" val:Core="Permissible"/>
                <ItemRef ItemOID="IT.ADPPK.CMT" OrderNumber="41" Mandatory="No" Role="Population Pharmacokinetics Analysis Variables" val:Core="Permissible"/>
                <ItemRef ItemOID="IT.ADPPK.DV" OrderNumber="42" Mandatory="Yes" Role="Population Pharmacokinetics Analysis Variables" val:Core="Required"/>
                <ItemRef ItemOID="IT.ADPPK.ADT" OrderNumber="43" Mandatory="No" Role="Timing Variables for BDS Datasets" val:Core="Permissible"/>
                <ItemRef ItemOID="IT.ADPPK.ATM" OrderNumber="44" Mandatory="No" Role="Timing Variables for BDS Datasets" val:Core="Permissible"/>
                <ItemRef ItemOID="IT.ADPPK.ADTM" OrderNumber="45" Mandatory="No" Role="Timing Variables for BDS Datasets" val:Core="Permissible"/>
                <ItemRef ItemOID="IT.ADPPK.ADY" OrderNumber="46" Mandatory="No" Role="Timing Variables for BDS Datasets" val:Core="Permissible"/>
                <ItemRef ItemOID="IT.ADPPK.ADTF" OrderNumber="47" Mandatory="No" Role="Timing Variables for BDS Datasets" val:Core="Conditional"/>
                <ItemRef ItemOID="IT.ADPPK.ATMF" OrderNumber="48" Mandatory="No" Role="Timing Variables for BDS Datasets" val:Core="Conditional"/>
                <ItemRef ItemOID="IT.ADPPK.ASTDT" OrderNumber="49" Mandatory="No" Role="Timing Variables for BDS Datasets" val:Core="Permissible"/>
                <ItemRef ItemOID="IT.ADPPK.ASTTM" OrderNumber="50" Mandatory="No" Role="Timing Variables for BDS Datasets" val:Core="Permissible"/>
                <ItemRef ItemOID="IT.ADPPK.ASTDTM" OrderNumber="51" Mandatory="No" Role="Timing Variables for BDS Datasets" val:Core="Permissible"/>
                <ItemRef ItemOID="IT.ADPPK.ASTDY" OrderNumber="52" Mandatory="No" Role="Timing Variables for BDS Datasets" val:Core="Permissible"/>
                <ItemRef ItemOID="IT.ADPPK.ASTDTF" OrderNumber="53" Mandatory="No" Role="Timing Variables for BDS Datasets" val:Core="Conditional"/>
                <ItemRef ItemOID="IT.ADPPK.ASTTMF" OrderNumber="54" Mandatory="No" Role="Timing Variables for BDS Datasets" val:Core="Conditional"/>
                <ItemRef ItemOID="IT.ADPPK.AENDT" OrderNumber="55" Mandatory="No" Role="Timing Variables for BDS Datasets" val:Core="Permissible"/>
                <ItemRef ItemOID="IT.ADPPK.AENTM" OrderNumber="56" Mandatory="No" Role="Timing Variables for BDS Datasets" val:Core="Permissible"/>
                <ItemRef ItemOID="IT.ADPPK.AENDTM" OrderNumber="57" Mandatory="No" Role="Timing Variables for BDS Datasets" val:Core="Permissible"/>
                <ItemRef ItemOID="IT.ADPPK.AENDY" OrderNumber="58" Mandatory="No" Role="Timing Variables for BDS Datasets" val:Core="Permissible"/>
                <ItemRef ItemOID="IT.ADPPK.AENDTF" OrderNumber="59" Mandatory="No" Role="Timing Variables for BDS Datasets" val:Core="Conditional"/>
                <ItemRef ItemOID="IT.ADPPK.AENTMF" OrderNumber="60" Mandatory="No" Role="Timing Variables for BDS Datasets" val:Core="Conditional"/>
                <ItemRef ItemOID="IT.ADPPK.AVISIT" OrderNumber="61" Mandatory="No" Role="Timing Variables for BDS Datasets" val:Core="Conditional"/>
                <ItemRef ItemOID="IT.ADPPK.AVISITN" OrderNumber="62" Mandatory="No" Role="Timing Variables for BDS Datasets" val:Core="Permissible"/>
                <ItemRef ItemOID="IT.ADPPK.ATPT" OrderNumber="63" Mandatory="No" Role="Timing Variables for BDS Datasets" val:Core="Conditional"/>
                <ItemRef ItemOID="IT.ADPPK.ATPTN" OrderNumber="64" Mandatory="No" Role="Timing Variables for BDS Datasets" val:Core="Permissible"/>
                <ItemRef ItemOID="IT.ADPPK.ATPTREF" OrderNumber="65" Mandatory="No" Role="Timing Variables for BDS Datasets" val:Core="Permissible"/>
                <ItemRef ItemOID="IT.ADPPK.APHASE" OrderNumber="66" Mandatory="No" Role="Timing Variables for BDS Datasets" val:Core="Permissible"/>
                <ItemRef ItemOID="IT.ADPPK.APHASEN" OrderNumber="67" Mandatory="No" Role="Timing Variables for BDS Datasets" val:Core="Permissible"/>
                <ItemRef ItemOID="IT.ADPPK.APERIOD" OrderNumber="68" Mandatory="No" Role="Timing Variables for BDS Datasets" val:Core="Conditional"/>
                <ItemRef ItemOID="IT.ADPPK.APERIODC" OrderNumber="69" Mandatory="No" Role="Timing Variables for BDS Datasets" val:Core="Permissible"/>
                <ItemRef ItemOID="IT.ADPPK.ASPER" OrderNumber="70" Mandatory="No" Role="Timing Variables for BDS Datasets" val:Core="Permissible"/>
                <ItemRef ItemOID="IT.ADPPK.ASPERC" OrderNumber="71" Mandatory="No" Role="Timing Variables for BDS Datasets" val:Core="Permissible"/>
                <ItemRef ItemOID="IT.ADPPK.ARELTM" OrderNumber="72" Mandatory="No" Role="Timing Variables for BDS Datasets" val:Core="Permissible"/>
                <ItemRef ItemOID="IT.ADPPK.ARELTMU" OrderNumber="73" Mandatory="No" Role="Timing Variables for BDS Datasets" val:Core="Permissible"/>
                <ItemRef ItemOID="IT.ADPPK.APERSDT" OrderNumber="74" Mandatory="No" Role="Period, Subperiod, and Phase Start and End Timing Variables" val:Core="Permissible"/>
                <ItemRef ItemOID="IT.ADPPK.APERSTM" OrderNumber="75" Mandatory="No" Role="Period, Subperiod, and Phase Start and End Timing Variables" val:Core="Permissible"/>
                <ItemRef ItemOID="IT.ADPPK.APERSDTM" OrderNumber="76" Mandatory="No" Role="Period, Subperiod, and Phase Start and End Timing Variables" val:Core="Permissible"/>
                <ItemRef ItemOID="IT.ADPPK.APERSDTF" OrderNumber="77" Mandatory="No" Role="Period, Subperiod, and Phase Start and End Timing Variables" val:Core="Conditional"/>
                <ItemRef ItemOID="IT.ADPPK.APERSTMF" OrderNumber="78" Mandatory="No" Role="Period, Subperiod, and Phase Start and End Timing Variables" val:Core="Conditional"/>
                <ItemRef ItemOID="IT.ADPPK.APEREDT" OrderNumber="79" Mandatory="No" Role="Period, Subperiod, and Phase Start and End Timing Variables" val:Core="Permissible"/>
                <ItemRef ItemOID="IT.ADPPK.APERETM" OrderNumber="80" Mandatory="No" Role="Period, Subperiod, and Phase Start and End Timing Variables" val:Core="Permissible"/>
                <ItemRef ItemOID="IT.ADPPK.APEREDTM" OrderNumber="81" Mandatory="No" Role="Period, Subperiod, and Phase Start and End Timing Variables" val:Core="Permissible"/>
                <ItemRef ItemOID="IT.ADPPK.APEREDTF" OrderNumber="82" Mandatory="No" Role="Period, Subperiod, and Phase Start and End Timing Variables" val:Core="Conditional"/>
                <ItemRef ItemOID="IT.ADPPK.APERETMF" OrderNumber="83" Mandatory="No" Role="Period, Subperiod, and Phase Start and End Timing Variables" val:Core="Conditional"/>
                <ItemRef ItemOID="IT.ADPPK.ASPRSDT" OrderNumber="84" Mandatory="No" Role="Period, Subperiod, and Phase Start and End Timing Variables" val:Core="Permissible"/>
                <ItemRef ItemOID="IT.ADPPK.ASPRSTM" OrderNumber="85" Mandatory="No" Role="Period, Subperiod, and Phase Start and End Timing Variables" val:Core="Permissible"/>
                <ItemRef ItemOID="IT.ADPPK.ASPRSDTM" OrderNumber="86" Mandatory="No" Role="Period, Subperiod, and Phase Start and End Timing Variables" val:Core="Permissible"/>
                <ItemRef ItemOID="IT.ADPPK.ASPRSDTF" OrderNumber="87" Mandatory="No" Role="Period, Subperiod, and Phase Start and End Timing Variables" val:Core="Conditional"/>
                <ItemRef ItemOID="IT.ADPPK.ASPRSTMF" OrderNumber="88" Mandatory="No" Role="Period, Subperiod, and Phase Start and End Timing Variables" val:Core="Conditional"/>
                <ItemRef ItemOID="IT.ADPPK.ASPREDT" OrderNumber="89" Mandatory="No" Role="Period, Subperiod, and Phase Start and End Timing Variables" val:Core="Permissible"/>
                <ItemRef ItemOID="IT.ADPPK.ASPRETM" OrderNumber="90" Mandatory="No" Role="Period, Subperiod, and Phase Start and End Timing Variables" val:Core="Permissible"/>
                <ItemRef ItemOID="IT.ADPPK.ASPREDTM" OrderNumber="91" Mandatory="No" Role="Period, Subperiod, and Phase Start and End Timing Variables" val:Core="Permissible"/>
                <ItemRef ItemOID="IT.ADPPK.ASPREDTF" OrderNumber="92" Mandatory="No" Role="Period, Subperiod, and Phase Start and End Timing Variables" val:Core="Conditional"/>
                <ItemRef ItemOID="IT.ADPPK.ASPRETMF" OrderNumber="93" Mandatory="No" Role="Period, Subperiod, and Phase Start and End Timing Variables" val:Core="Conditional"/>
                <ItemRef ItemOID="IT.ADPPK.PHSDT" OrderNumber="94" Mandatory="No" Role="Period, Subperiod, and Phase Start and End Timing Variables" val:Core="Permissible"/>
                <ItemRef ItemOID="IT.ADPPK.PHSTM" OrderNumber="95" Mandatory="No" Role="Period, Subperiod, and Phase Start and End Timing Variables" val:Core="Permissible"/>
                <ItemRef ItemOID="IT.ADPPK.PHSDTM" OrderNumber="96" Mandatory="No" Role="Period, Subperiod, and Phase Start and End Timing Variables" val:Core="Permissible"/>
                <ItemRef ItemOID="IT.ADPPK.PHSDTF" OrderNumber="97" Mandatory="No" Role="Period, Subperiod, and Phase Start and End Timing Variables" val:Core="Conditional"/>
                <ItemRef ItemOID="IT.ADPPK.PHSTMF" OrderNumber="98" Mandatory="No" Role="Period, Subperiod, and Phase Start and End Timing Variables" val:Core="Conditional"/>
                <ItemRef ItemOID="IT.ADPPK.PHEDT" OrderNumber="99" Mandatory="No" Role="Period, Subperiod, and Phase Start and End Timing Variables" val:Core="Permissible"/>
                <ItemRef ItemOID="IT.ADPPK.PHETM" OrderNumber="100" Mandatory="No" Role="Period, Subperiod, and Phase Start and End Timing Variables" val:Core="Permissible"/>
                <ItemRef ItemOID="IT.ADPPK.PHEDTM" OrderNumber="101" Mandatory="No" Role="Period, Subperiod, and Phase Start and End Timing Variables" val:Core="Permissible"/>
                <ItemRef ItemOID="IT.ADPPK.PHEDTF" OrderNumber="102" Mandatory="No" Role="Period, Subperiod, and Phase Start and End Timing Variables" val:Core="Conditional"/>
                <ItemRef ItemOID="IT.ADPPK.PHETMF" OrderNumber="103" Mandatory="No" Role="Period, Subperiod, and Phase Start and End Timing Variables" val:Core="Conditional"/>
                <ItemRef ItemOID="IT.ADPPK.*DT" OrderNumber="104" Mandatory="No" Role="Suffixes for User-Defined Timing Variables in BDS Datasets" val:Core="Permissible"/>
                <ItemRef ItemOID="IT.ADPPK.*TM" OrderNumber="105" Mandatory="No" Role="Suffixes for User-Defined Timing Variables in BDS Datasets" val:Core="Permissible"/>
                <ItemRef ItemOID="IT.ADPPK.*DTM" OrderNumber="106" Mandatory="No" Role="Suffixes for User-Defined Timing Variables in BDS Datasets" val:Core="Permissible"/>
                <ItemRef ItemOID="IT.ADPPK.*ADY" OrderNumber="107" Mandatory="No" Role="Suffixes for User-Defined Timing Variables in BDS Datasets" val:Core="Permissible"/>
                <ItemRef ItemOID="IT.ADPPK.*DTF" OrderNumber="108" Mandatory="No" Role="Suffixes for User-Defined Timing Variables in BDS Datasets" val:Core="Conditional"/>
                <ItemRef ItemOID="IT.ADPPK.*TMF" OrderNumber="109" Mandatory="No" Role="Suffixes for User-Defined Timing Variables in BDS Datasets" val:Core="Conditional"/>
                <ItemRef ItemOID="IT.ADPPK.*SDT" OrderNumber="110" Mandatory="No" Role="Suffixes for User-Defined Timing Variables in BDS Datasets" val:Core="Permissible"/>
                <ItemRef ItemOID="IT.ADPPK.*STM" OrderNumber="111" Mandatory="No" Role="Suffixes for User-Defined Timing Variables in BDS Datasets" val:Core="Permissible"/>
                <ItemRef ItemOID="IT.ADPPK.*SDTM" OrderNumber="112" Mandatory="No" Role="Suffixes for User-Defined Timing Variables in BDS Datasets" val:Core="Permissible"/>
                <ItemRef ItemOID="IT.ADPPK.*SDY" OrderNumber="113" Mandatory="No" Role="Suffixes for User-Defined Timing Variables in BDS Datasets" val:Core="Permissible"/>
                <ItemRef ItemOID="IT.ADPPK.*SDTF" OrderNumber="114" Mandatory="No" Role="Suffixes for User-Defined Timing Variables in BDS Datasets" val:Core="Conditional"/>
                <ItemRef ItemOID="IT.ADPPK.*STMF" OrderNumber="115" Mandatory="No" Role="Suffixes for User-Defined Timing Variables in BDS Datasets" val:Core="Conditional"/>
                <ItemRef ItemOID="IT.ADPPK.*EDT" OrderNumber="116" Mandatory="No" Role="Suffixes for User-Defined Timing Variables in BDS Datasets" val:Core="Permissible"/>
                <ItemRef ItemOID="IT.ADPPK.*ETM" OrderNumber="117" Mandatory="No" Role="Suffixes for User-Defined Timing Variables in BDS Datasets" val:Core="Permissible"/>
                <ItemRef ItemOID="IT.ADPPK.*EDTM" OrderNumber="118" Mandatory="No" Role="Suffixes for User-Defined Timing Variables in BDS Datasets" val:Core="Permissible"/>
                <ItemRef ItemOID="IT.ADPPK.*EDY" OrderNumber="119" Mandatory="No" Role="Suffixes for User-Defined Timing Variables in BDS Datasets" val:Core="Permissible"/>
                <ItemRef ItemOID="IT.ADPPK.*EDTF" OrderNumber="120" Mandatory="No" Role="Suffixes for User-Defined Timing Variables in BDS Datasets" val:Core="Conditional"/>
                <ItemRef ItemOID="IT.ADPPK.*ETMF" OrderNumber="121" Mandatory="No" Role="Suffixes for User-Defined Timing Variables in BDS Datasets" val:Core="Conditional"/>
                <ItemRef ItemOID="IT.ADPPK.PARAM" OrderNumber="122" Mandatory="Yes" Role="Analysis Parameter Variables for BDS Datasets" val:Core="Required"/>
                <ItemRef ItemOID="IT.ADPPK.PARAMCD" OrderNumber="123" Mandatory="Yes" Role="Analysis Parameter Variables for BDS Datasets" val:Core="Required"/>
                <ItemRef ItemOID="IT.ADPPK.PARAMN" OrderNumber="124" Mandatory="No" Role="Analysis Parameter Variables for BDS Datasets" val:Core="Permissible"/>
                <ItemRef ItemOID="IT.ADPPK.PARCAT#" OrderNumber="125" Mandatory="No" Role="Analysis Parameter Variables for BDS Datasets" val:Core="Permissible"/>
                <ItemRef ItemOID="IT.ADPPK.PARCAT#N" OrderNumber="126" Mandatory="No" Role="Analysis Parameter Variables for BDS Datasets" val:Core="Permissible"/>
                <ItemRef ItemOID="IT.ADPPK.AVAL" OrderNumber="127" Mandatory="No" Role="Population Pharmacokinetics Analysis Variables" val:Core="Conditional"/>
                <ItemRef ItemOID="IT.ADPPK.AVALC" OrderNumber="128" Mandatory="No" Role="Analysis Parameter Variables for BDS Datasets" val:Core="Conditional"/>
                <ItemRef ItemOID="IT.ADPPK.AVALU" OrderNumber="129" Mandatory="No" Role="Population Pharmacokinetics Analysis Variables" val:Core="Permissible"/>
                <ItemRef ItemOID="IT.ADPPK.AVALCAT#" OrderNumber="130" Mandatory="No" Role="Analysis Parameter Variables for BDS Datasets" val:Core="Permissible"/>
                <ItemRef ItemOID="IT.ADPPK.AVALCA#N" OrderNumber="131" Mandatory="No" Role="Analysis Parameter Variables for BDS Datasets" val:Core="Permissible"/>
                <ItemRef ItemOID="IT.ADPPK.BASE" OrderNumber="132" Mandatory="No" Role="Analysis Parameter Variables for BDS Datasets" val:Core="Conditional"/>
                <ItemRef ItemOID="IT.ADPPK.BASEC" OrderNumber="133" Mandatory="No" Role="Analysis Parameter Variables for BDS Datasets" val:Core="Permissible"/>
                <ItemRef ItemOID="IT.ADPPK.BASECAT#" OrderNumber="134" Mandatory="No" Role="Analysis Parameter Variables for BDS Datasets" val:Core="Permissible"/>
                <ItemRef ItemOID="IT.ADPPK.BASECA#N" OrderNumber="135" Mandatory="No" Role="Analysis Parameter Variables for BDS Datasets" val:Core="Permissible"/>
                <ItemRef ItemOID="IT.ADPPK.BASETYPE" OrderNumber="136" Mandatory="No" Role="Analysis Parameter Variables for BDS Datasets" val:Core="Conditional"/>
                <ItemRef ItemOID="IT.ADPPK.CHG" OrderNumber="137" Mandatory="No" Role="Analysis Parameter Variables for BDS Datasets" val:Core="Permissible"/>
                <ItemRef ItemOID="IT.ADPPK.CHGCAT#" OrderNumber="138" Mandatory="No" Role="Analysis Parameter Variables for BDS Datasets" val:Core="Permissible"/>
                <ItemRef ItemOID="IT.ADPPK.CHGCAT#N" OrderNumber="139" Mandatory="No" Role="Analysis Parameter Variables for BDS Datasets" val:Core="Permissible"/>
                <ItemRef ItemOID="IT.ADPPK.PCHG" OrderNumber="140" Mandatory="No" Role="Analysis Parameter Variables for BDS Datasets" val:Core="Permissible"/>
                <ItemRef ItemOID="IT.ADPPK.PCHGCAT#" OrderNumber="141" Mandatory="No" Role="Analysis Parameter Variables for BDS Datasets" val:Core="Permissible"/>
                <ItemRef ItemOID="IT.ADPPK.PCHGCA#N" OrderNumber="142" Mandatory="No" Role="Analysis Parameter Variables for BDS Datasets" val:Core="Permissible"/>
                <ItemRef ItemOID="IT.ADPPK.R2BASE" OrderNumber="143" Mandatory="No" Role="Analysis Parameter Variables for BDS Datasets" val:Core="Permissible"/>
                <ItemRef ItemOID="IT.ADPPK.R2A#LO" OrderNumber="144" Mandatory="No" Role="Analysis Parameter Variables for BDS Datasets" val:Core="Permissible"/>
                <ItemRef ItemOID="IT.ADPPK.R2A#HI" OrderNumber="145" Mandatory="No" Role="Analysis Parameter Variables for BDS Datasets" val:Core="Permissible"/>
                <ItemRef ItemOID="IT.ADPPK.SHIFT#" OrderNumber="146" Mandatory="No" Role="Analysis Parameter Variables for BDS Datasets" val:Core="Permissible"/>
                <ItemRef ItemOID="IT.ADPPK.SHIFT#N" OrderNumber="147" Mandatory="No" Role="Analysis Parameter Variables for BDS Datasets" val:Core="Permissible"/>
                <ItemRef ItemOID="IT.ADPPK.BCHG" OrderNumber="148" Mandatory="No" Role="Analysis Parameter Variables for BDS Datasets" val:Core="Permissible"/>
                <ItemRef ItemOID="IT.ADPPK.BCHGCAT#" OrderNumber="149" Mandatory="No" Role="Analysis Parameter Variables for BDS Datasets" val:Core="Permissible"/>
                <ItemRef ItemOID="IT.ADPPK.BCHGCA#N" OrderNumber="150" Mandatory="No" Role="Analysis Parameter Variables for BDS Datasets" val:Core="Permissible"/>
                <ItemRef ItemOID="IT.ADPPK.PBCHG" OrderNumber="151" Mandatory="No" Role="Analysis Parameter Variables for BDS Datasets" val:Core="Permissible"/>
                <ItemRef ItemOID="IT.ADPPK.PBCHGCA#" OrderNumber="152" Mandatory="No" Role="Analysis Parameter Variables for BDS Datasets" val:Core="Permissible"/>
                <ItemRef ItemOID="IT.ADPPK.PBCHGC#N" OrderNumber="153" Mandatory="No" Role="Analysis Parameter Variables for BDS Datasets" val:Core="Permissible"/>
                <ItemRef ItemOID="IT.ADPPK.CRIT#" OrderNumber="154" Mandatory="No" Role="Analysis Parameter Criteria Variables for BDS Datasets" val:Core="Permissible"/>
                <ItemRef ItemOID="IT.ADPPK.CRIT#FL" OrderNumber="155" Mandatory="No" Role="Analysis Parameter Criteria Variables for BDS Datasets" val:Core="Conditional"/>
                <ItemRef ItemOID="IT.ADPPK.CRIT#FN" OrderNumber="156" Mandatory="No" Role="Analysis Parameter Criteria Variables for BDS Datasets" val:Core="Permissible"/>
                <ItemRef ItemOID="IT.ADPPK.MCRIT#" OrderNumber="157" Mandatory="No" Role="Analysis Parameter Criteria Variables for BDS Datasets" val:Core="Permissible"/>
                <ItemRef ItemOID="IT.ADPPK.MCRIT#ML" OrderNumber="158" Mandatory="No" Role="Analysis Parameter Criteria Variables for BDS Datasets" val:Core="Conditional"/>
                <ItemRef ItemOID="IT.ADPPK.MCRIT#MN" OrderNumber="159" Mandatory="No" Role="Analysis Parameter Criteria Variables for BDS Datasets" val:Core="Permissible"/>
                <ItemRef ItemOID="IT.ADPPK.DTYPE" OrderNumber="160" Mandatory="No" Role="Analysis Descriptor Variables for BDS Datasets" val:Core="Conditional"/>
                <ItemRef ItemOID="IT.ADPPK.AWRANGE" OrderNumber="161" Mandatory="No" Role="Analysis Visit Windowing Variables for BDS Datasets" val:Core="Permissible"/>
                <ItemRef ItemOID="IT.ADPPK.AWTARGET" OrderNumber="162" Mandatory="No" Role="Analysis Visit Windowing Variables for BDS Datasets" val:Core="Permissible"/>
                <ItemRef ItemOID="IT.ADPPK.AWTDIFF" OrderNumber="163" Mandatory="No" Role="Analysis Visit Windowing Variables for BDS Datasets" val:Core="Permissible"/>
                <ItemRef ItemOID="IT.ADPPK.AWLO" OrderNumber="164" Mandatory="No" Role="Analysis Visit Windowing Variables for BDS Datasets" val:Core="Permissible"/>
                <ItemRef ItemOID="IT.ADPPK.AWHI" OrderNumber="165" Mandatory="No" Role="Analysis Visit Windowing Variables for BDS Datasets" val:Core="Permissible"/>
                <ItemRef ItemOID="IT.ADPPK.AWU" OrderNumber="166" Mandatory="No" Role="Analysis Visit Windowing Variables for BDS Datasets" val:Core="Permissible"/>
                <ItemRef ItemOID="IT.ADPPK.USTRESC" OrderNumber="167" Mandatory="No" Role="Population Pharmacokinetics Analysis Variables" val:Core="Permissible"/>
                <ItemRef ItemOID="IT.ADPPK.MDV" OrderNumber="168" Mandatory="Yes" Role="Population Pharmacokinetics Analysis Variables" val:Core="Required"/>
                <ItemRef ItemOID="IT.ADPPK.AULOQ" OrderNumber="169" Mandatory="No" Role="Population Pharmacokinetics Analysis Variables" val:Core="Permissible"/>
                <ItemRef ItemOID="IT.ADPPK.ALLOQ" OrderNumber="170" Mandatory="No" Role="Population Pharmacokinetics Analysis Variables" val:Core="Permissible"/>
                <ItemRef ItemOID="IT.ADPPK.BLQFL" OrderNumber="171" Mandatory="No" Role="Population Pharmacokinetics Analysis Variables" val:Core="Conditional"/>
                <ItemRef ItemOID="IT.ADPPK.BLQFN" OrderNumber="172" Mandatory="No" Role="Population Pharmacokinetics Analysis Variables" val:Core="Permissible"/>
                <ItemRef ItemOID="IT.ADPPK.ALQFL" OrderNumber="173" Mandatory="No" Role="Population Pharmacokinetics Analysis Variables" val:Core="Conditional"/>
                <ItemRef ItemOID="IT.ADPPK.ALQFN" OrderNumber="174" Mandatory="No" Role="Population Pharmacokinetics Analysis Variables" val:Core="Permissible"/>
                <ItemRef ItemOID="IT.ADPPK.AMT" OrderNumber="175" Mandatory="Yes" Role="Population Pharmacokinetics Analysis Variables" val:Core="Required"/>
                <ItemRef ItemOID="IT.ADPPK.DOSEP" OrderNumber="176" Mandatory="No" Role="Record-Level Dose Variables for BDS Datasets" val:Core="Permissible"/>
                <ItemRef ItemOID="IT.ADPPK.DOSCUMP" OrderNumber="177" Mandatory="No" Role="Record-Level Dose Variables for BDS Datasets" val:Core="Permissible"/>
                <ItemRef ItemOID="IT.ADPPK.DOSEA" OrderNumber="178" Mandatory="No" Role="Population Pharmacokinetics Analysis Variables" val:Core="Permissible"/>
                <ItemRef ItemOID="IT.ADPPK.DOSCUMA" OrderNumber="179" Mandatory="No" Role="Record-Level Dose Variables for BDS Datasets" val:Core="Permissible"/>
                <ItemRef ItemOID="IT.ADPPK.DOSEU" OrderNumber="180" Mandatory="No" Role="Record-Level Dose Variables for BDS Datasets" val:Core="Permissible"/>
                <ItemRef ItemOID="IT.ADPPK.DOSETDD" OrderNumber="181" Mandatory="No" Role="Population Pharmacokinetics Analysis Variables" val:Core="Permissible"/>
                <ItemRef ItemOID="IT.ADPPK.DOSEDUR" OrderNumber="182" Mandatory="No" Role="Population Pharmacokinetics Analysis Variables" val:Core="Permissible"/>
                <ItemRef ItemOID="IT.ADPPK.RATE" OrderNumber="183" Mandatory="No" Role="Population Pharmacokinetics Analysis Variables" val:Core="Permissible"/>
                <ItemRef ItemOID="IT.ADPPK.II" OrderNumber="184" Mandatory="No" Role="Population Pharmacokinetics Analysis Variables" val:Core="Permissible"/>
                <ItemRef ItemOID="IT.ADPPK.ADDL" OrderNumber="185" Mandatory="No" Role="Population Pharmacokinetics Analysis Variables" val:Core="Permissible"/>
                <ItemRef ItemOID="IT.ADPPK.SS" OrderNumber="186" Mandatory="No" Role="Population Pharmacokinetics Analysis Variables" val:Core="Permissible"/>
                <ItemRef ItemOID="IT.ADPPK.FORM" OrderNumber="187" Mandatory="No" Role="Population Pharmacokinetics Analysis Variables" val:Core="Permissible"/>
                <ItemRef ItemOID="IT.ADPPK.FORMN" OrderNumber="188" Mandatory="No" Role="Population Pharmacokinetics Analysis Variables" val:Core="Permissible"/>
                <ItemRef ItemOID="IT.ADPPK.ROUTE" OrderNumber="189" Mandatory="No" Role="Population Pharmacokinetics Analysis Variables" val:Core="Permissible"/>
                <ItemRef ItemOID="IT.ADPPK.ROUTEN" OrderNumber="190" Mandatory="No" Role="Population Pharmacokinetics Analysis Variables" val:Core="Permissible"/>
                <ItemRef ItemOID="IT.ADPPK.ACYCLE" OrderNumber="191" Mandatory="No" Role="Population Pharmacokinetics Analysis Variables" val:Core="Permissible"/>
                <ItemRef ItemOID="IT.ADPPK.ACYCLEC" OrderNumber="192" Mandatory="No" Role="Population Pharmacokinetics Analysis Variables" val:Core="Permissible"/>
                <ItemRef ItemOID="IT.ADPPK.COHORT" OrderNumber="193" Mandatory="No" Role="Population Pharmacokinetics Analysis Variables" val:Core="Permissible"/>
                <ItemRef ItemOID="IT.ADPPK.COHORTC" OrderNumber="194" Mandatory="No" Role="Population Pharmacokinetics Analysis Variables" val:Core="Permissible"/>
                <ItemRef ItemOID="IT.ADPPK.UDTC" OrderNumber="195" Mandatory="No" Role="Population Pharmacokinetics Analysis Variables" val:Core="Permissible"/>
                <ItemRef ItemOID="IT.ADPPK.ATOXGR" OrderNumber="196" Mandatory="No" Role="Toxicity and Range Variables for BDS Datasets" val:Core="Permissible"/>
                <ItemRef ItemOID="IT.ADPPK.ATOXGRN" OrderNumber="197" Mandatory="No" Role="Toxicity and Range Variables for BDS Datasets" val:Core="Permissible"/>
                <ItemRef ItemOID="IT.ADPPK.BTOXGR" OrderNumber="198" Mandatory="No" Role="Toxicity and Range Variables for BDS Datasets" val:Core="Permissible"/>
                <ItemRef ItemOID="IT.ADPPK.BTOXGRN" OrderNumber="199" Mandatory="No" Role="Toxicity and Range Variables for BDS Datasets" val:Core="Permissible"/>
                <ItemRef ItemOID="IT.ADPPK.ANRIND" OrderNumber="200" Mandatory="No" Role="Toxicity and Range Variables for BDS Datasets" val:Core="Permissible"/>
                <ItemRef ItemOID="IT.ADPPK.BNRIND" OrderNumber="201" Mandatory="No" Role="Toxicity and Range Variables for BDS Datasets" val:Core="Permissible"/>
                <ItemRef ItemOID="IT.ADPPK.ANRLO" OrderNumber="202" Mandatory="No" Role="Toxicity and Range Variables for BDS Datasets" val:Core="Permissible"/>
                <ItemRef ItemOID="IT.ADPPK.ANRLOC" OrderNumber="203" Mandatory="No" Role="Toxicity and Range Variables for BDS Datasets" val:Core="Permissible"/>
                <ItemRef ItemOID="IT.ADPPK.ANRHI" OrderNumber="204" Mandatory="No" Role="Toxicity and Range Variables for BDS Datasets" val:Core="Permissible"/>
                <ItemRef ItemOID="IT.ADPPK.ANRHIC" OrderNumber="205" Mandatory="No" Role="Toxicity and Range Variables for BDS Datasets" val:Core="Permissible"/>
                <ItemRef ItemOID="IT.ADPPK.A#LO" OrderNumber="206" Mandatory="No" Role="Toxicity and Range Variables for BDS Datasets" val:Core="Conditional"/>
                <ItemRef ItemOID="IT.ADPPK.A#LOC" OrderNumber="207" Mandatory="No" Role="Toxicity and Range Variables for BDS Datasets" val:Core="Permissible"/>
                <ItemRef ItemOID="IT.ADPPK.A#HI" OrderNumber="208" Mandatory="No" Role="Toxicity and Range Variables for BDS Datasets" val:Core="Conditional"/>
                <ItemRef ItemOID="IT.ADPPK.A#HIC" OrderNumber="209" Mandatory="No" Role="Toxicity and Range Variables for BDS Datasets" val:Core="Permissible"/>
                <ItemRef ItemOID="IT.ADPPK.A#IND" OrderNumber="210" Mandatory="No" Role="Toxicity and Range Variables for BDS Datasets" val:Core="Permissible"/>
                <ItemRef ItemOID="IT.ADPPK.B#IND" OrderNumber="211" Mandatory="No" Role="Toxicity and Range Variables for BDS Datasets" val:Core="Permissible"/>
                <ItemRef ItemOID="IT.ADPPK.ATOXGRL" OrderNumber="212" Mandatory="No" Role="Toxicity and Range Variables for BDS Datasets" val:Core="Permissible"/>
                <ItemRef ItemOID="IT.ADPPK.ATOXGRLN" OrderNumber="213" Mandatory="No" Role="Toxicity and Range Variables for BDS Datasets" val:Core="Permissible"/>
                <ItemRef ItemOID="IT.ADPPK.ATOXGRH" OrderNumber="214" Mandatory="No" Role="Toxicity and Range Variables for BDS Datasets" val:Core="Permissible"/>
                <ItemRef ItemOID="IT.ADPPK.ATOXGRHN" OrderNumber="215" Mandatory="No" Role="Toxicity and Range Variables for BDS Datasets" val:Core="Permissible"/>
                <ItemRef ItemOID="IT.ADPPK.BTOXGRL" OrderNumber="216" Mandatory="No" Role="Toxicity and Range Variables for BDS Datasets" val:Core="Permissible"/>
                <ItemRef ItemOID="IT.ADPPK.BTOXGRLN" OrderNumber="217" Mandatory="No" Role="Toxicity and Range Variables for BDS Datasets" val:Core="Permissible"/>
                <ItemRef ItemOID="IT.ADPPK.BTOXGRH" OrderNumber="218" Mandatory="No" Role="Toxicity and Range Variables for BDS Datasets" val:Core="Permissible"/>
                <ItemRef ItemOID="IT.ADPPK.BTOXGRHN" OrderNumber="219" Mandatory="No" Role="Toxicity and Range Variables for BDS Datasets" val:Core="Permissible"/>
                <ItemRef ItemOID="IT.ADPPK.ATOXDSCL" OrderNumber="220" Mandatory="No" Role="Toxicity and Range Variables for BDS Datasets" val:Core="Permissible"/>
                <ItemRef ItemOID="IT.ADPPK.ATOXDSCH" OrderNumber="221" Mandatory="No" Role="Toxicity and Range Variables for BDS Datasets" val:Core="Permissible"/>
                <ItemRef ItemOID="IT.ADPPK.ABLFL" OrderNumber="222" Mandatory="No" Role="Flag Variables for BDS Datasets" val:Core="Conditional"/>
                <ItemRef ItemOID="IT.ADPPK.ABLFN" OrderNumber="223" Mandatory="No" Role="Flag Variables for BDS Datasets" val:Core="Permissible"/>
                <ItemRef ItemOID="IT.ADPPK.ANL#FL" OrderNumber="224" Mandatory="No" Role="Flag Variables for BDS Datasets" val:Core="Conditional"/>
                <ItemRef ItemOID="IT.ADPPK.ANL#FN" OrderNumber="225" Mandatory="No" Role="Flag Variables for BDS Datasets" val:Core="Permissible"/>
                <ItemRef ItemOID="IT.ADPPK.ONTRTFL" OrderNumber="226" Mandatory="No" Role="Flag Variables for BDS Datasets" val:Core="Permissible"/>
                <ItemRef ItemOID="IT.ADPPK.ONTRTFN" OrderNumber="227" Mandatory="No" Role="Flag Variables for BDS Datasets" val:Core="Permissible"/>
                <ItemRef ItemOID="IT.ADPPK.LVOTFL" OrderNumber="228" Mandatory="No" Role="Flag Variables for BDS Datasets" val:Core="Permissible"/>
                <ItemRef ItemOID="IT.ADPPK.LVOTFN" OrderNumber="229" Mandatory="No" Role="Flag Variables for BDS Datasets" val:Core="Permissible"/>
                <ItemRef ItemOID="IT.ADPPK.ITTRFL" OrderNumber="230" Mandatory="No" Role="BDS Population Indicators" val:Core="Permissible"/>
                <ItemRef ItemOID="IT.ADPPK.ITTRFN" OrderNumber="231" Mandatory="No" Role="BDS Population Indicators" val:Core="Permissible"/>
                <ItemRef ItemOID="IT.ADPPK.SAFRFL" OrderNumber="232" Mandatory="No" Role="BDS Population Indicators" val:Core="Permissible"/>
                <ItemRef ItemOID="IT.ADPPK.SAFRFN" OrderNumber="233" Mandatory="No" Role="BDS Population Indicators" val:Core="Permissible"/>
                <ItemRef ItemOID="IT.ADPPK.FASRFL" OrderNumber="234" Mandatory="No" Role="BDS Population Indicators" val:Core="Permissible"/>
                <ItemRef ItemOID="IT.ADPPK.FASRFN" OrderNumber="235" Mandatory="No" Role="BDS Population Indicators" val:Core="Permissible"/>
                <ItemRef ItemOID="IT.ADPPK.PPROTRFL" OrderNumber="236" Mandatory="No" Role="BDS Population Indicators" val:Core="Permissible"/>
                <ItemRef ItemOID="IT.ADPPK.PPROTRFN" OrderNumber="237" Mandatory="No" Role="BDS Population Indicators" val:Core="Permissible"/>
                <ItemRef ItemOID="IT.ADPPK.COMPLRFL" OrderNumber="238" Mandatory="No" Role="BDS Population Indicators" val:Core="Permissible"/>
                <ItemRef ItemOID="IT.ADPPK.COMPRFN" OrderNumber="239" Mandatory="No" Role="BDS Population Indicators" val:Core="Permissible"/>
                <ItemRef ItemOID="IT.ADPPK.ITTPFL" OrderNumber="240" Mandatory="No" Role="BDS Population Indicators" val:Core="Permissible"/>
                <ItemRef ItemOID="IT.ADPPK.ITTPFN" OrderNumber="241" Mandatory="No" Role="BDS Population Indicators" val:Core="Permissible"/>
                <ItemRef ItemOID="IT.ADPPK.SAFPFL" OrderNumber="242" Mandatory="No" Role="BDS Population Indicators" val:Core="Permissible"/>
                <ItemRef ItemOID="IT.ADPPK.SAFPFN" OrderNumber="243" Mandatory="No" Role="BDS Population Indicators" val:Core="Permissible"/>
                <ItemRef ItemOID="IT.ADPPK.FASPFL" OrderNumber="244" Mandatory="No" Role="BDS Population Indicators" val:Core="Permissible"/>
                <ItemRef ItemOID="IT.ADPPK.FASPFN" OrderNumber="245" Mandatory="No" Role="BDS Population Indicators" val:Core="Permissible"/>
                <ItemRef ItemOID="IT.ADPPK.PPROTPFL" OrderNumber="246" Mandatory="No" Role="BDS Population Indicators" val:Core="Permissible"/>
                <ItemRef ItemOID="IT.ADPPK.PPROTPFN" OrderNumber="247" Mandatory="No" Role="BDS Population Indicators" val:Core="Permissible"/>
                <ItemRef ItemOID="IT.ADPPK.COMPLPFL" OrderNumber="248" Mandatory="No" Role="BDS Population Indicators" val:Core="Permissible"/>
                <ItemRef ItemOID="IT.ADPPK.COMPLPFN" OrderNumber="249" Mandatory="No" Role="BDS Population Indicators" val:Core="Permissible"/>
                <ItemRef ItemOID="IT.ADPPK.SRCDOM" OrderNumber="250" Mandatory="No" Role="Datapoint Traceability Variables" val:Core="Permissible"/>
                <ItemRef ItemOID="IT.ADPPK.SRCVAR" OrderNumber="251" Mandatory="No" Role="Datapoint Traceability Variables" val:Core="Permissible"/>
                <ItemRef ItemOID="IT.ADPPK.SRCSEQ" OrderNumber="252" Mandatory="No" Role="Datapoint Traceability Variables" val:Core="Permissible"/>
                <ItemRef ItemOID="IT.ADPPK.WT" OrderNumber="253" Mandatory="No" Role="Population Pharmacokinetics Analysis Variables - Covariates" val:Core="Permissible"/>
                <ItemRef ItemOID="IT.ADPPK.WTBL" OrderNumber="254" Mandatory="No" Role="Population Pharmacokinetics Analysis Variables - Covariates" val:Core="Permissible"/>
                <ItemRef ItemOID="IT.ADPPK.HTBL" OrderNumber="255" Mandatory="No" Role="Population Pharmacokinetics Analysis Variables - Covariates" val:Core="Permissible"/>
                <ItemRef ItemOID="IT.ADPPK.BMIBL" OrderNumber="256" Mandatory="No" Role="Population Pharmacokinetics Analysis Variables - Covariates" val:Core="Permissible"/>
                <ItemRef ItemOID="IT.ADPPK.BSABL" OrderNumber="257" Mandatory="No" Role="Population Pharmacokinetics Analysis Variables - Covariates" val:Core="Permissible"/>
                <ItemRef ItemOID="IT.ADPPK.AGE" OrderNumber="258" Mandatory="No" Role="Population Pharmacokinetics Analysis Variables - Covariates" val:Core="Permissible"/>
                <ItemRef ItemOID="IT.ADPPK.AGEU" OrderNumber="259" Mandatory="No" Role="ADSL Subject Demographics Variables" val:Core="Permissible"/>
                <ItemRef ItemOID="IT.ADPPK.AGEGR#" OrderNumber="260" Mandatory="No" Role="ADSL Subject Demographics Variables" val:Core="Permissible"/>
                <ItemRef ItemOID="IT.ADPPK.AGEGR#N" OrderNumber="261" Mandatory="No" Role="ADSL Subject Demographics Variables" val:Core="Permissible"/>
                <ItemRef ItemOID="IT.ADPPK.AAGE" OrderNumber="262" Mandatory="No" Role="ADSL Subject Demographics Variables" val:Core="Permissible"/>
                <ItemRef ItemOID="IT.ADPPK.AGETPT" OrderNumber="263" Mandatory="No" Role="Population Pharmacokinetics Analysis Variables - Covariates" val:Core="Permissible"/>
                <ItemRef ItemOID="IT.ADPPK.SEX" OrderNumber="264" Mandatory="Yes" Role="Population Pharmacokinetics Analysis Variables - Covariates" val:Core="Required"/>
                <ItemRef ItemOID="IT.ADPPK.SEXN" OrderNumber="265" Mandatory="No" Role="Population Pharmacokinetics Analysis Variables - Covariates" val:Core="Permissible"/>
                <ItemRef ItemOID="IT.ADPPK.RACE" OrderNumber="266" Mandatory="Yes" Role="Population Pharmacokinetics Analysis Variables - Covariates" val:Core="Required"/>
                <ItemRef ItemOID="IT.ADPPK.RACEN" OrderNumber="267" Mandatory="No" Role="Population Pharmacokinetics Analysis Variables - Covariates" val:Core="Permissible"/>
                <ItemRef ItemOID="IT.ADPPK.RACEGR#" OrderNumber="268" Mandatory="No" Role="ADSL Subject Demographics Variables" val:Core="Permissible"/>
                <ItemRef ItemOID="IT.ADPPK.RACEGR#N" OrderNumber="269" Mandatory="No" Role="ADSL Subject Demographics Variables" val:Core="Permissible"/>
                <ItemRef ItemOID="IT.ADPPK.ARACE" OrderNumber="270" Mandatory="No" Role="Population Pharmacokinetics Analysis Variables - Covariates" val:Core="Permissible"/>
                <ItemRef ItemOID="IT.ADPPK.ARACEN" OrderNumber="271" Mandatory="No" Role="Population Pharmacokinetics Analysis Variables - Covariates" val:Core="Permissible"/>
                <ItemRef ItemOID="IT.ADPPK.AETHNIC" OrderNumber="272" Mandatory="No" Role="Population Pharmacokinetics Analysis Variables - Covariates" val:Core="Permissible"/>
                <ItemRef ItemOID="IT.ADPPK.AETHNICN" OrderNumber="273" Mandatory="No" Role="Population Pharmacokinetics Analysis Variables - Covariates" val:Core="Permissible"/>
                <ItemRef ItemOID="IT.ADPPK.SITEGR#" OrderNumber="274" Mandatory="No" Role="ADSL Identifier Variables" val:Core="Permissible"/>
                <ItemRef ItemOID="IT.ADPPK.SITEGR#N" OrderNumber="275" Mandatory="No" Role="ADSL Identifier Variables" val:Core="Permissible"/>
                <ItemRef ItemOID="IT.ADPPK.REGION#" OrderNumber="276" Mandatory="No" Role="Population Pharmacokinetics Analysis Variables - Covariates" val:Core="Permissible"/>
                <ItemRef ItemOID="IT.ADPPK.REGION#N" OrderNumber="277" Mandatory="No" Role="Population Pharmacokinetics Analysis Variables - Covariates" val:Core="Permissible"/>
                <ItemRef ItemOID="IT.ADPPK.COUNTRY" OrderNumber="278" Mandatory="No" Role="Population Pharmacokinetics Analysis Variables - Covariates" val:Core="Permissible"/>
                <ItemRef ItemOID="IT.ADPPK.COUNTRYL" OrderNumber="279" Mandatory="No" Role="Population Pharmacokinetics Analysis Variables - Covariates" val:Core="Permissible"/>
                <ItemRef ItemOID="IT.ADPPK.COUNTRYN" OrderNumber="280" Mandatory="No" Role="Population Pharmacokinetics Analysis Variables - Covariates" val:Core="Permissible"/>
                <ItemRef ItemOID="IT.ADPPK.CREATBL" OrderNumber="281" Mandatory="No" Role="Population Pharmacokinetics Analysis Variables - Covariates" val:Core="Permissible"/>
                <ItemRef ItemOID="IT.ADPPK.CRCLBL" OrderNumber="282" Mandatory="No" Role="Population Pharmacokinetics Analysis Variables - Covariates" val:Core="Permissible"/>
                <ItemRef ItemOID="IT.ADPPK.EGFRBL" OrderNumber="283" Mandatory="No" Role="Population Pharmacokinetics Analysis Variables - Covariates" val:Core="Permissible"/>
                <ItemRef ItemOID="IT.ADPPK.TBILBL" OrderNumber="284" Mandatory="No" Role="Population Pharmacokinetics Analysis Variables - Covariates" val:Core="Permissible"/>
                <ItemRef ItemOID="IT.ADPPK.ASTBL" OrderNumber="285" Mandatory="No" Role="Population Pharmacokinetics Analysis Variables - Covariates" val:Core="Permissible"/>
                <ItemRef ItemOID="IT.ADPPK.ALTBL" OrderNumber="286" Mandatory="No" Role="Population Pharmacokinetics Analysis Variables - Covariates" val:Core="Permissible"/>
                <ItemRef ItemOID="IT.ADPPK.FASFL" OrderNumber="287" Mandatory="No" Role="ADSL Population Indicator Variables" val:Core="Permissible"/>
                <ItemRef ItemOID="IT.ADPPK.FASFN" OrderNumber="288" Mandatory="No" Role="Population Flag" val:Core="Permissible"/>
                <ItemRef ItemOID="IT.ADPPK.SAFFL" OrderNumber="289" Mandatory="No" Role="ADSL Population Indicator Variables" val:Core="Permissible"/>
                <ItemRef ItemOID="IT.ADPPK.SAFFN" OrderNumber="290" Mandatory="No" Role="Population Flag" val:Core="Permissible"/>
                <ItemRef ItemOID="IT.ADPPK.ITTFL" OrderNumber="291" Mandatory="No" Role="ADSL Population Indicator Variables" val:Core="Permissible"/>
                <ItemRef ItemOID="IT.ADPPK.ITTFN" OrderNumber="292" Mandatory="No" Role="Population Flag" val:Core="Permissible"/>
                <ItemRef ItemOID="IT.ADPPK.PPROTFL" OrderNumber="293" Mandatory="No" Role="ADSL Population Indicator Variables" val:Core="Permissible"/>
                <ItemRef ItemOID="IT.ADPPK.PPROTFN" OrderNumber="294" Mandatory="No" Role="Population Flag" val:Core="Permissible"/>
                <ItemRef ItemOID="IT.ADPPK.COMPLFL" OrderNumber="295" Mandatory="No" Role="ADSL Population Indicator Variables" val:Core="Permissible"/>
