{
  "version_date": "2026-03-27",
  "sdtm_domain_count": 131,
  "sdtm_variable_count": 16470,
  "adam_dataset_count": 14,
  "adam_variable_count": 2676,
  "codelist_count": 1240,
  "vlm_count": 418,
  "domains": [
    {
      "study_id": "GLOBAL",
      "standard": "SDTM",
      "code": "TA",
      "name": "Trial Arms",
      "description": "Trial Arms domain per CDISC specification.",
      "structure": "One record per planned Element per Arm",
      "cls": "TRIAL DESIGN",
      "purpose": "Tabulation",
      "key_variables": "STUDYID, DOMAIN, ARMCD, TAETORD",
      "version": "1.0",
      "status": "ACTIVE",
      "updated_at": "2026-03-27T00:00:00.000Z",
      "updated_by": "CDISC Standards Lead",
      "change_reason": "CDISC SDTM release"
    },
    {
      "study_id": "GLOBAL",
      "standard": "SDTM",
      "code": "TD",
      "name": "Trial Disease Assessments",
      "description": "Trial Disease Assessments domain per CDISC specification.",
      "structure": "One record per planned constant assessment period",
      "cls": "TRIAL DESIGN",
      "purpose": "Tabulation",
      "key_variables": "STUDYID, DOMAIN, TDORDER",
      "version": "1.0",
      "status": "ACTIVE",
      "updated_at": "2026-03-27T00:00:00.000Z",
      "updated_by": "CDISC Standards Lead",
      "change_reason": "CDISC SDTM release"
    },
    {
      "study_id": "GLOBAL",
      "standard": "SDTM",
      "code": "TE",
      "name": "Trial Elements",
      "description": "Trial Elements domain per CDISC specification.",
      "structure": "One record per planned Element",
      "cls": "TRIAL DESIGN",
      "purpose": "Tabulation",
      "key_variables": "STUDYID, DOMAIN, ETCD",
      "version": "1.0",
      "status": "ACTIVE",
      "updated_at": "2026-03-27T00:00:00.000Z",
      "updated_by": "CDISC Standards Lead",
      "change_reason": "CDISC SDTM release"
    },
    {
      "study_id": "GLOBAL",
      "standard": "SDTM",
      "code": "TI",
      "name": "Trial Inclusion/Exclusion Criteria",
      "description": "Trial Inclusion/Exclusion Criteria domain per CDISC specification.",
      "structure": "One record per I/E criterion",
      "cls": "TRIAL DESIGN",
      "purpose": "Tabulation",
      "key_variables": "STUDYID, DOMAIN, IETESTCD, TIVERS",
      "version": "1.0",
      "status": "ACTIVE",
      "updated_at": "2026-03-27T00:00:00.000Z",
      "updated_by": "CDISC Standards Lead",
      "change_reason": "CDISC SDTM release"
    },
    {
      "study_id": "GLOBAL",
      "standard": "SDTM",
      "code": "TM",
      "name": "Trial Disease Milestones",
      "description": "Trial Disease Milestones domain per CDISC specification.",
      "structure": "One record per Disease Milestone type",
      "cls": "TRIAL DESIGN",
      "purpose": "Tabulation",
      "key_variables": "STUDYID, DOMAIN, MIDSTYPE",
      "version": "1.0",
      "status": "ACTIVE",
      "updated_at": "2026-03-27T00:00:00.000Z",
      "updated_by": "CDISC Standards Lead",
      "change_reason": "CDISC SDTM release"
    },
    {
      "study_id": "GLOBAL",
      "standard": "SDTM",
      "code": "TS",
      "name": "Trial Summary",
      "description": "Trial Summary domain per CDISC specification.",
      "structure": "One record per trial summary parameter value",
      "cls": "TRIAL DESIGN",
      "purpose": "Tabulation",
      "key_variables": "STUDYID, DOMAIN, TSSEQ, TSGRPID, TSPARMCD",
      "version": "1.0",
      "status": "ACTIVE",
      "updated_at": "2026-03-27T00:00:00.000Z",
      "updated_by": "CDISC Standards Lead",
      "change_reason": "CDISC SDTM release"
    },
    {
      "study_id": "GLOBAL",
      "standard": "SDTM",
      "code": "TV",
      "name": "Trial Visits",
      "description": "Trial Visits domain per CDISC specification.",
      "structure": "One record per planned Visit per Arm",
      "cls": "TRIAL DESIGN",
      "purpose": "Tabulation",
      "key_variables": "STUDYID, DOMAIN, VISITNUM, ARMCD",
      "version": "1.0",
      "status": "ACTIVE",
      "updated_at": "2026-03-27T00:00:00.000Z",
      "updated_by": "CDISC Standards Lead",
      "change_reason": "CDISC SDTM release"
    },
    {
      "study_id": "GLOBAL",
      "standard": "SDTM",
      "code": "APCO",
      "name": "Associated Persons for CO",
      "description": "Associated Persons for CO domain per CDISC specification.",
      "structure": "One record per comment per associated person",
      "cls": "SPECIAL PURPOSE",
      "purpose": "Tabulation",
      "key_variables": "STUDYID, DOMAIN, RDOMAIN, USUBJID, APID",
      "version": "1.0",
      "status": "ACTIVE",
      "updated_at": "2026-03-27T00:00:00.000Z",
      "updated_by": "CDISC Standards Lead",
      "change_reason": "CDISC SDTM release"
    },
    {
      "study_id": "GLOBAL",
      "standard": "SDTM",
      "code": "APDM",
      "name": "Associated Persons Demographics",
      "description": "Associated Persons Demographics domain per CDISC specification.",
      "structure": "One record per associated person",
      "cls": "SPECIAL PURPOSE",
      "purpose": "Tabulation",
      "key_variables": "STUDYID, DOMAIN, USUBJID, APID, RSUBJID",
      "version": "1.0",
      "status": "ACTIVE",
      "updated_at": "2026-03-27T00:00:00.000Z",
      "updated_by": "CDISC Standards Lead",
      "change_reason": "CDISC SDTM release"
    },
    {
      "study_id": "GLOBAL",
      "standard": "SDTM",
      "code": "CO",
      "name": "Comments",
      "description": "Comments domain per CDISC specification.",
      "structure": "One record per comment per subject",
      "cls": "SPECIAL PURPOSE",
      "purpose": "Tabulation",
      "key_variables": "STUDYID, DOMAIN, RDOMAIN, USUBJID, POOLID",
      "version": "1.0",
      "status": "ACTIVE",
      "updated_at": "2026-03-27T00:00:00.000Z",
      "updated_by": "CDISC Standards Lead",
      "change_reason": "CDISC SDTM release"
    },
    {
      "study_id": "GLOBAL",
      "standard": "SDTM",
      "code": "DM",
      "name": "Demographics",
      "description": "Demographics domain per CDISC specification.",
      "structure": "One record per subject",
      "cls": "SPECIAL PURPOSE",
      "purpose": "Tabulation",
      "key_variables": "STUDYID, DOMAIN, USUBJID",
      "version": "1.0",
      "status": "ACTIVE",
      "updated_at": "2026-03-27T00:00:00.000Z",
      "updated_by": "CDISC Standards Lead",
      "change_reason": "CDISC SDTM release"
    },
    {
      "study_id": "GLOBAL",
      "standard": "SDTM",
      "code": "SE",
      "name": "Subject Elements",
      "description": "Subject Elements domain per CDISC specification.",
      "structure": "One record per actual Element per subject",
      "cls": "SPECIAL PURPOSE",
      "purpose": "Tabulation",
      "key_variables": "STUDYID, DOMAIN, USUBJID, SESEQ, SEGRPID",
      "version": "1.0",
      "status": "ACTIVE",
      "updated_at": "2026-03-27T00:00:00.000Z",
      "updated_by": "CDISC Standards Lead",
      "change_reason": "CDISC SDTM release"
    },
    {
      "study_id": "GLOBAL",
      "standard": "SDTM",
      "code": "SM",
      "name": "Subject Disease Milestones",
      "description": "Subject Disease Milestones domain per CDISC specification.",
      "structure": "One record per Disease Milestone per subject",
      "cls": "SPECIAL PURPOSE",
      "purpose": "Tabulation",
      "key_variables": "STUDYID, DOMAIN, USUBJID, SMSEQ, SMGRPID",
      "version": "1.0",
      "status": "ACTIVE",
      "updated_at": "2026-03-27T00:00:00.000Z",
      "updated_by": "CDISC Standards Lead",
      "change_reason": "CDISC SDTM release"
    },
    {
      "study_id": "GLOBAL",
      "standard": "SDTM",
      "code": "SV",
      "name": "Subject Visits",
      "description": "Subject Visits domain per CDISC specification.",
      "structure": "One record per actual or planned visit per subject",
      "cls": "SPECIAL PURPOSE",
      "purpose": "Tabulation",
      "key_variables": "STUDYID, DOMAIN, USUBJID, POOLID, SVSEQ",
      "version": "1.0",
      "status": "ACTIVE",
      "updated_at": "2026-03-27T00:00:00.000Z",
      "updated_by": "CDISC Standards Lead",
      "change_reason": "CDISC SDTM release"
    },
    {
      "study_id": "GLOBAL",
      "standard": "SDTM",
      "code": "AP INTERVENTIONS",
      "name": "Associated Persons Interventions",
      "description": "Associated Persons Interventions domain per CDISC specification.",
      "structure": "One record per constant-dosing interval or intervention episode per subject",
      "cls": "INTERVENTIONS",
      "purpose": "Tabulation",
      "key_variables": "STUDYID, DOMAIN, USUBJID, APID, POOLID",
      "version": "1.0",
      "status": "ACTIVE",
      "updated_at": "2026-03-27T00:00:00.000Z",
      "updated_by": "CDISC Standards Lead",
      "change_reason": "CDISC SDTM release"
    },
    {
      "study_id": "GLOBAL",
      "standard": "SDTM",
      "code": "INTERVENTIONS",
      "name": "Interventions",
      "description": "Interventions domain per CDISC specification.",
      "structure": "One record per constant-dosing interval or intervention episode per subject",
      "cls": "INTERVENTIONS",
      "purpose": "Tabulation",
      "key_variables": "STUDYID, DOMAIN, USUBJID, POOLID, SPDEVID",
      "version": "1.0",
      "status": "ACTIVE",
      "updated_at": "2026-03-27T00:00:00.000Z",
      "updated_by": "CDISC Standards Lead",
      "change_reason": "CDISC SDTM release"
    },
    {
      "study_id": "GLOBAL",
      "standard": "SDTM",
      "code": "AG",
      "name": "Procedure Agents",
      "description": "Procedure Agents domain per CDISC specification.",
      "structure": "One record per recorded intervention occurrence per subject",
      "cls": "INTERVENTIONS",
      "purpose": "Tabulation",
      "key_variables": "STUDYID, DOMAIN, USUBJID, POOLID, SPDEVID",
      "version": "1.0",
      "status": "ACTIVE",
      "updated_at": "2026-03-27T00:00:00.000Z",
      "updated_by": "CDISC Standards Lead",
      "change_reason": "CDISC SDTM release"
    },
    {
      "study_id": "GLOBAL",
      "standard": "SDTM",
      "code": "APAG",
      "name": "Associated Persons for AG",
      "description": "Associated Persons for AG domain per CDISC specification.",
      "structure": "One record per recorded intervention occurrence per associated person",
      "cls": "INTERVENTIONS",
      "purpose": "Tabulation",
      "key_variables": "STUDYID, DOMAIN, USUBJID, APID, POOLID",
      "version": "1.0",
      "status": "ACTIVE",
      "updated_at": "2026-03-27T00:00:00.000Z",
      "updated_by": "CDISC Standards Lead",
      "change_reason": "CDISC SDTM release"
    },
    {
      "study_id": "GLOBAL",
      "standard": "SDTM",
      "code": "APCM",
      "name": "Associated Persons for CM",
      "description": "Associated Persons for CM domain per CDISC specification.",
      "structure": "One record per recorded intervention occurrence or constant-dosing interval per associated person",
      "cls": "INTERVENTIONS",
      "purpose": "Tabulation",
      "key_variables": "STUDYID, DOMAIN, USUBJID, APID, POOLID",
      "version": "1.0",
      "status": "ACTIVE",
      "updated_at": "2026-03-27T00:00:00.000Z",
      "updated_by": "CDISC Standards Lead",
      "change_reason": "CDISC SDTM release"
    },
    {
      "study_id": "GLOBAL",
      "standard": "SDTM",
      "code": "APEC",
      "name": "Associated Persons for EC",
      "description": "Associated Persons for EC domain per CDISC specification.",
      "structure": "One record per protocol-specified study treatment, collected-dosing interval, per associated person, per mood",
      "cls": "INTERVENTIONS",
      "purpose": "Tabulation",
      "key_variables": "STUDYID, DOMAIN, USUBJID, APID, POOLID",
      "version": "1.0",
      "status": "ACTIVE",
      "updated_at": "2026-03-27T00:00:00.000Z",
      "updated_by": "CDISC Standards Lead",
      "change_reason": "CDISC SDTM release"
    },
    {
      "study_id": "GLOBAL",
      "standard": "SDTM",
      "code": "APEX",
      "name": "Associated Persons for EX",
      "description": "Associated Persons for EX domain per CDISC specification.",
      "structure": "One record per protocol-specified study treatment, constant-dosing interval, per associated person",
      "cls": "INTERVENTIONS",
      "purpose": "Tabulation",
      "key_variables": "STUDYID, DOMAIN, USUBJID, APID, POOLID",
      "version": "1.0",
      "status": "ACTIVE",
      "updated_at": "2026-03-27T00:00:00.000Z",
      "updated_by": "CDISC Standards Lead",
      "change_reason": "CDISC SDTM release"
    },
    {
      "study_id": "GLOBAL",
      "standard": "SDTM",
      "code": "APML",
      "name": "Associated Persons for ML",
      "description": "Associated Persons for ML domain per CDISC specification.",
      "structure": "One record per food product occurrence or constant intake interval per associated person",
      "cls": "INTERVENTIONS",
      "purpose": "Tabulation",
      "key_variables": "STUDYID, DOMAIN, USUBJID, APID, POOLID",
      "version": "1.0",
      "status": "ACTIVE",
      "updated_at": "2026-03-27T00:00:00.000Z",
      "updated_by": "CDISC Standards Lead",
      "change_reason": "CDISC SDTM release"
    },
    {
      "study_id": "GLOBAL",
      "standard": "SDTM",
      "code": "APPR",
      "name": "Associated Persons for PR",
      "description": "Associated Persons for PR domain per CDISC specification.",
      "structure": "One record per recorded procedure per occurrence per associated person",
      "cls": "INTERVENTIONS",
      "purpose": "Tabulation",
      "key_variables": "STUDYID, DOMAIN, USUBJID, APID, POOLID",
      "version": "1.0",
      "status": "ACTIVE",
      "updated_at": "2026-03-27T00:00:00.000Z",
      "updated_by": "CDISC Standards Lead",
      "change_reason": "CDISC SDTM release"
    },
    {
      "study_id": "GLOBAL",
      "standard": "SDTM",
      "code": "APSU",
      "name": "Associated Persons for SU",
      "description": "Associated Persons for SU domain per CDISC specification.",
      "structure": "One record per substance type per reported occurrence per associated person",
      "cls": "INTERVENTIONS",
      "purpose": "Tabulation",
      "key_variables": "STUDYID, DOMAIN, USUBJID, APID, POOLID",
      "version": "1.0",
      "status": "ACTIVE",
      "updated_at": "2026-03-27T00:00:00.000Z",
      "updated_by": "CDISC Standards Lead",
      "change_reason": "CDISC SDTM release"
    },
    {
      "study_id": "GLOBAL",
      "standard": "SDTM",
      "code": "CM",
      "name": "Concomitant/Prior Medications",
      "description": "Concomitant/Prior Medications domain per CDISC specification.",
      "structure": "One record per recorded intervention occurrence or constant-dosing interval per subject",
      "cls": "INTERVENTIONS",
      "purpose": "Tabulation",
      "key_variables": "STUDYID, DOMAIN, USUBJID, POOLID, SPDEVID",
      "version": "1.0",
      "status": "ACTIVE",
      "updated_at": "2026-03-27T00:00:00.000Z",
      "updated_by": "CDISC Standards Lead",
      "change_reason": "CDISC SDTM release"
    },
    {
      "study_id": "GLOBAL",
      "standard": "SDTM",
      "code": "DX",
      "name": "Device Exposure",
      "description": "Device Exposure domain per CDISC specification.",
      "structure": "One record per recorded intervention occurrence or constant treatment interval per subject",
      "cls": "INTERVENTIONS",
      "purpose": "Tabulation",
      "key_variables": "STUDYID, DOMAIN, USUBJID, POOLID, SPDEVID",
      "version": "1.0",
      "status": "ACTIVE",
      "updated_at": "2026-03-27T00:00:00.000Z",
      "updated_by": "CDISC Standards Lead",
      "change_reason": "CDISC SDTM release"
    },
    {
      "study_id": "GLOBAL",
      "standard": "SDTM",
      "code": "EC",
      "name": "Exposure as Collected",
      "description": "Exposure as Collected domain per CDISC specification.",
      "structure": "One record per protocol-specified study treatment, collected-dosing interval, per subject, per mood",
      "cls": "INTERVENTIONS",
      "purpose": "Tabulation",
      "key_variables": "STUDYID, DOMAIN, USUBJID, POOLID, SPDEVID",
      "version": "1.0",
      "status": "ACTIVE",
      "updated_at": "2026-03-27T00:00:00.000Z",
      "updated_by": "CDISC Standards Lead",
      "change_reason": "CDISC SDTM release"
    },
    {
      "study_id": "GLOBAL",
      "standard": "SDTM",
      "code": "EX",
      "name": "Exposure",
      "description": "Exposure domain per CDISC specification.",
      "structure": "One record per protocol-specified study treatment, constant-dosing interval, per subject",
      "cls": "INTERVENTIONS",
      "purpose": "Tabulation",
      "key_variables": "STUDYID, DOMAIN, USUBJID, POOLID, SPDEVID",
      "version": "1.0",
      "status": "ACTIVE",
      "updated_at": "2026-03-27T00:00:00.000Z",
      "updated_by": "CDISC Standards Lead",
      "change_reason": "CDISC SDTM release"
    },
    {
      "study_id": "GLOBAL",
      "standard": "SDTM",
      "code": "ML",
      "name": "Meal Data",
      "description": "Meal Data domain per CDISC specification.",
      "structure": "One record per food product occurrence or constant intake interval per subject",
      "cls": "INTERVENTIONS",
      "purpose": "Tabulation",
      "key_variables": "STUDYID, DOMAIN, USUBJID, POOLID, SPDEVID",
      "version": "1.0",
      "status": "ACTIVE",
      "updated_at": "2026-03-27T00:00:00.000Z",
      "updated_by": "CDISC Standards Lead",
      "change_reason": "CDISC SDTM release"
    },
    {
      "study_id": "GLOBAL",
      "standard": "SDTM",
      "code": "PR",
      "name": "Procedures",
      "description": "Procedures domain per CDISC specification.",
      "structure": "One record per recorded procedure per occurrence per subject",
      "cls": "INTERVENTIONS",
      "purpose": "Tabulation",
      "key_variables": "STUDYID, DOMAIN, USUBJID, POOLID, SPDEVID",
      "version": "1.0",
      "status": "ACTIVE",
      "updated_at": "2026-03-27T00:00:00.000Z",
      "updated_by": "CDISC Standards Lead",
      "change_reason": "CDISC SDTM release"
    },
    {
      "study_id": "GLOBAL",
      "standard": "SDTM",
      "code": "SU",
      "name": "Substance Use",
      "description": "Substance Use domain per CDISC specification.",
      "structure": "One record per substance type per reported occurrence per subject",
      "cls": "INTERVENTIONS",
      "purpose": "Tabulation",
      "key_variables": "STUDYID, DOMAIN, USUBJID, POOLID, SPDEVID",
      "version": "1.0",
      "status": "ACTIVE",
      "updated_at": "2026-03-27T00:00:00.000Z",
      "updated_by": "CDISC Standards Lead",
      "change_reason": "CDISC SDTM release"
    },
    {
      "study_id": "GLOBAL",
      "standard": "SDTM",
      "code": "AP EVENTS",
      "name": "Associated Persons Events",
      "description": "Associated Persons Events domain per CDISC specification.",
      "structure": "One record per event per subject",
      "cls": "EVENTS",
      "purpose": "Tabulation",
      "key_variables": "STUDYID, DOMAIN, USUBJID, APID, POOLID",
      "version": "1.0",
      "status": "ACTIVE",
      "updated_at": "2026-03-27T00:00:00.000Z",
      "updated_by": "CDISC Standards Lead",
      "change_reason": "CDISC SDTM release"
    },
    {
      "study_id": "GLOBAL",
      "standard": "SDTM",
      "code": "EVENTS",
      "name": "Events",
      "description": "Events domain per CDISC specification.",
      "structure": "One record per event per subject",
      "cls": "EVENTS",
      "purpose": "Tabulation",
      "key_variables": "STUDYID, DOMAIN, USUBJID, POOLID, SPDEVID",
      "version": "1.0",
      "status": "ACTIVE",
      "updated_at": "2026-03-27T00:00:00.000Z",
      "updated_by": "CDISC Standards Lead",
      "change_reason": "CDISC SDTM release"
    },
    {
      "study_id": "GLOBAL",
      "standard": "SDTM",
      "code": "AE",
      "name": "Adverse Events",
      "description": "Adverse Events domain per CDISC specification.",
      "structure": "One record per adverse event per subject",
      "cls": "EVENTS",
      "purpose": "Tabulation",
      "key_variables": "STUDYID, DOMAIN, USUBJID, POOLID, SPDEVID",
      "version": "1.0",
      "status": "ACTIVE",
      "updated_at": "2026-03-27T00:00:00.000Z",
      "updated_by": "CDISC Standards Lead",
      "change_reason": "CDISC SDTM release"
    },
    {
      "study_id": "GLOBAL",
      "standard": "SDTM",
      "code": "APAE",
      "name": "Associated Persons for AE",
      "description": "Associated Persons for AE domain per CDISC specification.",
      "structure": "One record per adverse event per associated person",
      "cls": "EVENTS",
      "purpose": "Tabulation",
      "key_variables": "STUDYID, DOMAIN, USUBJID, APID, POOLID",
      "version": "1.0",
      "status": "ACTIVE",
      "updated_at": "2026-03-27T00:00:00.000Z",
      "updated_by": "CDISC Standards Lead",
      "change_reason": "CDISC SDTM release"
    },
    {
      "study_id": "GLOBAL",
      "standard": "SDTM",
      "code": "APBE",
      "name": "Associated Persons for BS",
      "description": "Associated Persons for BS domain per CDISC specification.",
      "structure": "One record per instance per biospecimen event per biospecimen identifier per associated person",
      "cls": "EVENTS",
      "purpose": "Tabulation",
      "key_variables": "STUDYID, DOMAIN, USUBJID, APID, POOLID",
      "version": "1.0",
      "status": "ACTIVE",
      "updated_at": "2026-03-27T00:00:00.000Z",
      "updated_by": "CDISC Standards Lead",
      "change_reason": "CDISC SDTM release"
    },
    {
      "study_id": "GLOBAL",
      "standard": "SDTM",
      "code": "APCE",
      "name": "Associated Persons for CE",
      "description": "Associated Persons for CE domain per CDISC specification.",
      "structure": "One record per event per associated person",
      "cls": "EVENTS",
      "purpose": "Tabulation",
      "key_variables": "STUDYID, DOMAIN, USUBJID, APID, POOLID",
      "version": "1.0",
      "status": "ACTIVE",
      "updated_at": "2026-03-27T00:00:00.000Z",
      "updated_by": "CDISC Standards Lead",
      "change_reason": "CDISC SDTM release"
    },
    {
      "study_id": "GLOBAL",
      "standard": "SDTM",
      "code": "APDS",
      "name": "Associated Persons for DS",
      "description": "Associated Persons for DS domain per CDISC specification.",
      "structure": "One record per disposition status or protocol milestone per associated person",
      "cls": "EVENTS",
      "purpose": "Tabulation",
      "key_variables": "STUDYID, DOMAIN, USUBJID, APID, POOLID",
      "version": "1.0",
      "status": "ACTIVE",
      "updated_at": "2026-03-27T00:00:00.000Z",
      "updated_by": "CDISC Standards Lead",
      "change_reason": "CDISC SDTM release"
    },
    {
      "study_id": "GLOBAL",
      "standard": "SDTM",
      "code": "APDV",
      "name": "Associated Persons for DV",
      "description": "Associated Persons for DV domain per CDISC specification.",
      "structure": "One record per protocol deviation per associated person",
      "cls": "EVENTS",
      "purpose": "Tabulation",
      "key_variables": "STUDYID, DOMAIN, USUBJID, APID, POOLID",
      "version": "1.0",
      "status": "ACTIVE",
      "updated_at": "2026-03-27T00:00:00.000Z",
      "updated_by": "CDISC Standards Lead",
      "change_reason": "CDISC SDTM release"
    },
    {
      "study_id": "GLOBAL",
      "standard": "SDTM",
      "code": "APHO",
      "name": "Associated Persons for HO",
      "description": "Associated Persons for HO domain per CDISC specification.",
      "structure": "One record per healthcare encounter per associated person",
      "cls": "EVENTS",
      "purpose": "Tabulation",
      "key_variables": "STUDYID, DOMAIN, USUBJID, APID, POOLID",
      "version": "1.0",
      "status": "ACTIVE",
      "updated_at": "2026-03-27T00:00:00.000Z",
      "updated_by": "CDISC Standards Lead",
      "change_reason": "CDISC SDTM release"
    },
    {
      "study_id": "GLOBAL",
      "standard": "SDTM",
      "code": "APMH",
      "name": "Associated Persons for MH",
      "description": "Associated Persons for MH domain per CDISC specification.",
      "structure": "One record per medical history event per associated person",
      "cls": "EVENTS",
      "purpose": "Tabulation",
      "key_variables": "STUDYID, DOMAIN, USUBJID, APID, POOLID",
      "version": "1.0",
      "status": "ACTIVE",
      "updated_at": "2026-03-27T00:00:00.000Z",
      "updated_by": "CDISC Standards Lead",
      "change_reason": "CDISC SDTM release"
    },
    {
      "study_id": "GLOBAL",
      "standard": "SDTM",
      "code": "BE",
      "name": "Biospecimen Events",
      "description": "Biospecimen Events domain per CDISC specification.",
      "structure": "One record per instance per biospecimen event per biospecimen identifier per subject",
      "cls": "EVENTS",
      "purpose": "Tabulation",
      "key_variables": "STUDYID, DOMAIN, USUBJID, POOLID, SPDEVID",
      "version": "1.0",
      "status": "ACTIVE",
      "updated_at": "2026-03-27T00:00:00.000Z",
      "updated_by": "CDISC Standards Lead",
      "change_reason": "CDISC SDTM release"
    },
    {
      "study_id": "GLOBAL",
      "standard": "SDTM",
      "code": "CE",
      "name": "Clinical Events",
      "description": "Clinical Events domain per CDISC specification.",
      "structure": "One record per event per subject",
      "cls": "EVENTS",
      "purpose": "Tabulation",
      "key_variables": "STUDYID, DOMAIN, USUBJID, POOLID, SPDEVID",
      "version": "1.0",
      "status": "ACTIVE",
      "updated_at": "2026-03-27T00:00:00.000Z",
      "updated_by": "CDISC Standards Lead",
      "change_reason": "CDISC SDTM release"
    },
    {
      "study_id": "GLOBAL",
      "standard": "SDTM",
      "code": "DE",
      "name": "Device Events",
      "description": "Device Events domain per CDISC specification.",
      "structure": "One record per event per device",
      "cls": "EVENTS",
      "purpose": "Tabulation",
      "key_variables": "STUDYID, DOMAIN, USUBJID, POOLID, SPDEVID",
      "version": "1.0",
      "status": "ACTIVE",
      "updated_at": "2026-03-27T00:00:00.000Z",
      "updated_by": "CDISC Standards Lead",
      "change_reason": "CDISC SDTM release"
    },
    {
      "study_id": "GLOBAL",
      "standard": "SDTM",
      "code": "DS",
      "name": "Disposition",
      "description": "Disposition domain per CDISC specification.",
      "structure": "One record per disposition status or protocol milestone per subject",
      "cls": "EVENTS",
      "purpose": "Tabulation",
      "key_variables": "STUDYID, DOMAIN, USUBJID, POOLID, SPDEVID",
      "version": "1.0",
      "status": "ACTIVE",
      "updated_at": "2026-03-27T00:00:00.000Z",
      "updated_by": "CDISC Standards Lead",
      "change_reason": "CDISC SDTM release"
    },
    {
      "study_id": "GLOBAL",
      "standard": "SDTM",
      "code": "DT",
      "name": "Device Tracking and Disposition",
      "description": "Device Tracking and Disposition domain per CDISC specification.",
      "structure": "One record per device tracking event",
      "cls": "EVENTS",
      "purpose": "Tabulation",
      "key_variables": "STUDYID, DOMAIN, USUBJID, POOLID, SPDEVID",
      "version": "1.0",
      "status": "ACTIVE",
      "updated_at": "2026-03-27T00:00:00.000Z",
      "updated_by": "CDISC Standards Lead",
      "change_reason": "CDISC SDTM release"
    },
    {
      "study_id": "GLOBAL",
      "standard": "SDTM",
      "code": "DV",
      "name": "Protocol Deviations",
      "description": "Protocol Deviations domain per CDISC specification.",
      "structure": "One record per protocol deviation per subject",
      "cls": "EVENTS",
      "purpose": "Tabulation",
      "key_variables": "STUDYID, DOMAIN, USUBJID, POOLID, SPDEVID",
      "version": "1.0",
      "status": "ACTIVE",
      "updated_at": "2026-03-27T00:00:00.000Z",
      "updated_by": "CDISC Standards Lead",
      "change_reason": "CDISC SDTM release"
    },
    {
      "study_id": "GLOBAL",
      "standard": "SDTM",
      "code": "HO",
      "name": "Healthcare Encounters",
      "description": "Healthcare Encounters domain per CDISC specification.",
      "structure": "One record per healthcare encounter per subject",
      "cls": "EVENTS",
      "purpose": "Tabulation",
      "key_variables": "STUDYID, DOMAIN, USUBJID, POOLID, SPDEVID",
      "version": "1.0",
      "status": "ACTIVE",
      "updated_at": "2026-03-27T00:00:00.000Z",
      "updated_by": "CDISC Standards Lead",
      "change_reason": "CDISC SDTM release"
    },
    {
      "study_id": "GLOBAL",
      "standard": "SDTM",
      "code": "MH",
      "name": "Medical History",
      "description": "Medical History domain per CDISC specification.",
      "structure": "One record per medical history event per subject",
      "cls": "EVENTS",
      "purpose": "Tabulation",
      "key_variables": "STUDYID, DOMAIN, USUBJID, POOLID, SPDEVID",
      "version": "1.0",
      "status": "ACTIVE",
      "updated_at": "2026-03-27T00:00:00.000Z",
      "updated_by": "CDISC Standards Lead",
      "change_reason": "CDISC SDTM release"
    },
    {
      "study_id": "GLOBAL",
      "standard": "SDTM",
      "code": "AP FINDINGS",
      "name": "Associated Persons Findings",
      "description": "Associated Persons Findings domain per CDISC specification.",
      "structure": "One record per finding per subject",
      "cls": "FINDINGS",
      "purpose": "Tabulation",
      "key_variables": "STUDYID, DOMAIN, USUBJID, APID, POOLID",
      "version": "1.0",
      "status": "ACTIVE",
      "updated_at": "2026-03-27T00:00:00.000Z",
      "updated_by": "CDISC Standards Lead",
      "change_reason": "CDISC SDTM release"
    },
    {
      "study_id": "GLOBAL",
      "standard": "SDTM",
      "code": "FINDINGS",
      "name": "Findings",
      "description": "Findings domain per CDISC specification.",
      "structure": "One record per finding per subject",
      "cls": "FINDINGS",
      "purpose": "Tabulation",
      "key_variables": "STUDYID, DOMAIN, USUBJID, POOLID, SPDEVID",
      "version": "1.0",
      "status": "ACTIVE",
      "updated_at": "2026-03-27T00:00:00.000Z",
      "updated_by": "CDISC Standards Lead",
      "change_reason": "CDISC SDTM release"
    },
    {
      "study_id": "GLOBAL",
      "standard": "SDTM",
      "code": "APBS",
      "name": "Associated Persons for BS",
      "description": "Associated Persons for BS domain per CDISC specification.",
      "structure": "One record per measurement per biospecimen identifier per associated person",
      "cls": "FINDINGS",
      "purpose": "Tabulation",
      "key_variables": "STUDYID, DOMAIN, USUBJID, APID, POOLID",
      "version": "1.0",
      "status": "ACTIVE",
      "updated_at": "2026-03-27T00:00:00.000Z",
      "updated_by": "CDISC Standards Lead",
      "change_reason": "CDISC SDTM release"
    },
    {
      "study_id": "GLOBAL",
      "standard": "SDTM",
      "code": "APCP",
      "name": "Associated Persons for CP",
      "description": "Associated Persons for CP domain per CDISC specification.",
      "structure": "One record per test per specimen per timepoint per visit per associated person",
      "cls": "FINDINGS",
      "purpose": "Tabulation",
      "key_variables": "STUDYID, DOMAIN, USUBJID, APID, POOLID",
      "version": "1.0",
      "status": "ACTIVE",
      "updated_at": "2026-03-27T00:00:00.000Z",
      "updated_by": "CDISC Standards Lead",
      "change_reason": "CDISC SDTM release"
    },
    {
      "study_id": "GLOBAL",
      "standard": "SDTM",
      "code": "APCV",
      "name": "Associated Persons for CV",
      "description": "Associated Persons for CV domain per CDISC specification.",
      "structure": "One record per finding or result per time point per visit per associated person",
      "cls": "FINDINGS",
      "purpose": "Tabulation",
      "key_variables": "STUDYID, DOMAIN, USUBJID, APID, POOLID",
      "version": "1.0",
      "status": "ACTIVE",
      "updated_at": "2026-03-27T00:00:00.000Z",
      "updated_by": "CDISC Standards Lead",
      "change_reason": "CDISC SDTM release"
    },
    {
      "study_id": "GLOBAL",
      "standard": "SDTM",
      "code": "APDA",
      "name": "Associated Persons for DA",
      "description": "Associated Persons for DA domain per CDISC specification.",
      "structure": "One record per product accountability finding per associated person",
      "cls": "FINDINGS",
      "purpose": "Tabulation",
      "key_variables": "STUDYID, DOMAIN, USUBJID, APID, POOLID",
      "version": "1.0",
      "status": "ACTIVE",
      "updated_at": "2026-03-27T00:00:00.000Z",
      "updated_by": "CDISC Standards Lead",
      "change_reason": "CDISC SDTM release"
    },
    {
      "study_id": "GLOBAL",
      "standard": "SDTM",
      "code": "APDD",
      "name": "Associated Persons for DD",
      "description": "Associated Persons for DD domain per CDISC specification.",
      "structure": "One record per finding per associated person",
      "cls": "FINDINGS",
      "purpose": "Tabulation",
      "key_variables": "STUDYID, DOMAIN, USUBJID, APID, POOLID",
      "version": "1.0",
      "status": "ACTIVE",
      "updated_at": "2026-03-27T00:00:00.000Z",
      "updated_by": "CDISC Standards Lead",
      "change_reason": "CDISC SDTM release"
    },
    {
      "study_id": "GLOBAL",
      "standard": "SDTM",
      "code": "APEG",
      "name": "Associated Persons for EG",
      "description": "Associated Persons for EG domain per CDISC specification.",
      "structure": "One record per ECG observation per replicate per time point or one record per ECG observation per beat per visit per associated person",
      "cls": "FINDINGS",
      "purpose": "Tabulation",
      "key_variables": "STUDYID, DOMAIN, USUBJID, APID, POOLID",
      "version": "1.0",
      "status": "ACTIVE",
      "updated_at": "2026-03-27T00:00:00.000Z",
      "updated_by": "CDISC Standards Lead",
      "change_reason": "CDISC SDTM release"
    },
    {
      "study_id": "GLOBAL",
      "standard": "SDTM",
      "code": "APFT",
      "name": "Associated Persons for FT",
      "description": "Associated Persons for FT domain per CDISC specification.",
      "structure": "One record per Functional Test finding per time point per visit per associated person",
      "cls": "FINDINGS",
      "purpose": "Tabulation",
      "key_variables": "STUDYID, DOMAIN, USUBJID, APID, POOLID",
      "version": "1.0",
      "status": "ACTIVE",
      "updated_at": "2026-03-27T00:00:00.000Z",
      "updated_by": "CDISC Standards Lead",
      "change_reason": "CDISC SDTM release"
    },
    {
      "study_id": "GLOBAL",
      "standard": "SDTM",
      "code": "APGF",
      "name": "Associated Persons for GF",
      "description": "Associated Persons for GF domain per CDISC specification.",
      "structure": "One record per finding per observation per biospecimen per associated person",
      "cls": "FINDINGS",
      "purpose": "Tabulation",
      "key_variables": "STUDYID, DOMAIN, USUBJID, APID, POOLID",
      "version": "1.0",
      "status": "ACTIVE",
      "updated_at": "2026-03-27T00:00:00.000Z",
      "updated_by": "CDISC Standards Lead",
      "change_reason": "CDISC SDTM release"
    },
    {
      "study_id": "GLOBAL",
      "standard": "SDTM",
      "code": "APIE",
      "name": "Associated Persons for IE",
      "description": "Associated Persons for IE domain per CDISC specification.",
      "structure": "One record per inclusion/exclusion criterion not met per associated person",
      "cls": "FINDINGS",
      "purpose": "Tabulation",
      "key_variables": "STUDYID, DOMAIN, USUBJID, APID, POOLID",
      "version": "1.0",
      "status": "ACTIVE",
      "updated_at": "2026-03-27T00:00:00.000Z",
      "updated_by": "CDISC Standards Lead",
      "change_reason": "CDISC SDTM release"
    },
    {
      "study_id": "GLOBAL",
      "standard": "SDTM",
      "code": "APIS",
      "name": "Associated Persons for IS",
      "description": "Associated Persons for IS domain per CDISC specification.",
      "structure": "One record per test per visit per associated person",
      "cls": "FINDINGS",
      "purpose": "Tabulation",
      "key_variables": "STUDYID, DOMAIN, USUBJID, APID, POOLID",
      "version": "1.0",
      "status": "ACTIVE",
      "updated_at": "2026-03-27T00:00:00.000Z",
      "updated_by": "CDISC Standards Lead",
      "change_reason": "CDISC SDTM release"
    },
    {
      "study_id": "GLOBAL",
      "standard": "SDTM",
      "code": "APLB",
      "name": "Associated Persons for LB",
      "description": "Associated Persons for LB domain per CDISC specification.",
      "structure": "One record per lab test per time point per visit per associated person",
      "cls": "FINDINGS",
      "purpose": "Tabulation",
      "key_variables": "STUDYID, DOMAIN, USUBJID, APID, POOLID",
      "version": "1.0",
      "status": "ACTIVE",
      "updated_at": "2026-03-27T00:00:00.000Z",
      "updated_by": "CDISC Standards Lead",
      "change_reason": "CDISC SDTM release"
    },
    {
      "study_id": "GLOBAL",
      "standard": "SDTM",
      "code": "APLC",
      "name": "Associated Persons for LC",
      "description": "Associated Persons for LC domain per CDISC specification.",
      "structure": "One record per lab test per time point per visit per associated person",
      "cls": "FINDINGS",
      "purpose": "Tabulation",
      "key_variables": "STUDYID, DOMAIN, USUBJID, APID, POOLID",
      "version": "1.0",
      "status": "ACTIVE",
      "updated_at": "2026-03-27T00:00:00.000Z",
      "updated_by": "CDISC Standards Lead",
      "change_reason": "CDISC SDTM release"
    },
    {
      "study_id": "GLOBAL",
      "standard": "SDTM",
      "code": "APMB",
      "name": "Associated Persons for MB",
      "description": "Associated Persons for MB domain per CDISC specification.",
      "structure": "One record per microbiology specimen finding per time point per visit per associated person",
      "cls": "FINDINGS",
      "purpose": "Tabulation",
      "key_variables": "STUDYID, DOMAIN, USUBJID, APID, POOLID",
      "version": "1.0",
      "status": "ACTIVE",
      "updated_at": "2026-03-27T00:00:00.000Z",
      "updated_by": "CDISC Standards Lead",
      "change_reason": "CDISC SDTM release"
    },
    {
      "study_id": "GLOBAL",
      "standard": "SDTM",
      "code": "APMI",
      "name": "Associated Persons for MI",
      "description": "Associated Persons for MI domain per CDISC specification.",
      "structure": "One record per finding per specimen per associated person",
      "cls": "FINDINGS",
      "purpose": "Tabulation",
      "key_variables": "STUDYID, DOMAIN, USUBJID, APID, POOLID",
      "version": "1.0",
      "status": "ACTIVE",
      "updated_at": "2026-03-27T00:00:00.000Z",
      "updated_by": "CDISC Standards Lead",
      "change_reason": "CDISC SDTM release"
    },
    {
      "study_id": "GLOBAL",
      "standard": "SDTM",
      "code": "APMK",
      "name": "Associated Persons for MK",
      "description": "Associated Persons for MK domain per CDISC specification.",
      "structure": "One record per assessment per visit per associated person",
      "cls": "FINDINGS",
      "purpose": "Tabulation",
      "key_variables": "STUDYID, DOMAIN, USUBJID, APID, POOLID",
      "version": "1.0",
      "status": "ACTIVE",
      "updated_at": "2026-03-27T00:00:00.000Z",
      "updated_by": "CDISC Standards Lead",
      "change_reason": "CDISC SDTM release"
    },
    {
      "study_id": "GLOBAL",
      "standard": "SDTM",
      "code": "APMS",
      "name": "Associated Persons for MS",
      "description": "Associated Persons for MS domain per CDISC specification.",
      "structure": "One record per microbiology susceptibility test (or other organism-related finding) per organism found in MB",
      "cls": "FINDINGS",
      "purpose": "Tabulation",
      "key_variables": "STUDYID, DOMAIN, USUBJID, APID, POOLID",
      "version": "1.0",
      "status": "ACTIVE",
      "updated_at": "2026-03-27T00:00:00.000Z",
      "updated_by": "CDISC Standards Lead",
      "change_reason": "CDISC SDTM release"
    },
    {
      "study_id": "GLOBAL",
      "standard": "SDTM",
      "code": "APNV",
      "name": "Associated Persons for NV",
      "description": "Associated Persons for NV domain per CDISC specification.",
      "structure": "One record per finding per location per time point per visit per associated person",
      "cls": "FINDINGS",
      "purpose": "Tabulation",
      "key_variables": "STUDYID, DOMAIN, USUBJID, APID, POOLID",
      "version": "1.0",
      "status": "ACTIVE",
      "updated_at": "2026-03-27T00:00:00.000Z",
      "updated_by": "CDISC Standards Lead",
      "change_reason": "CDISC SDTM release"
    },
    {
      "study_id": "GLOBAL",
      "standard": "SDTM",
      "code": "APOE",
      "name": "Associated Persons for OE",
      "description": "Associated Persons for OE domain per CDISC specification.",
      "structure": "One record per ophthalmic finding per method per location, per time point per visit per associated person",
      "cls": "FINDINGS",
      "purpose": "Tabulation",
      "key_variables": "STUDYID, DOMAIN, USUBJID, APID, POOLID",
      "version": "1.0",
      "status": "ACTIVE",
      "updated_at": "2026-03-27T00:00:00.000Z",
      "updated_by": "CDISC Standards Lead",
      "change_reason": "CDISC SDTM release"
    },
    {
      "study_id": "GLOBAL",
      "standard": "SDTM",
      "code": "APPC",
      "name": "Associated Persons for PC",
      "description": "Associated Persons for PC domain per CDISC specification.",
      "structure": "One record per sample characteristic or time-point concentration per reference time point or per analyte per associated person",
      "cls": "FINDINGS",
      "purpose": "Tabulation",
      "key_variables": "STUDYID, DOMAIN, USUBJID, APID, POOLID",
      "version": "1.0",
      "status": "ACTIVE",
      "updated_at": "2026-03-27T00:00:00.000Z",
      "updated_by": "CDISC Standards Lead",
      "change_reason": "CDISC SDTM release"
    },
    {
      "study_id": "GLOBAL",
      "standard": "SDTM",
      "code": "APPE",
      "name": "Associated Persons for PE",
      "description": "Associated Persons for PE domain per CDISC specification.",
      "structure": "One record per body system or abnormality per visit per associated person",
      "cls": "FINDINGS",
      "purpose": "Tabulation",
      "key_variables": "STUDYID, DOMAIN, USUBJID, APID, POOLID",
      "version": "1.0",
      "status": "ACTIVE",
      "updated_at": "2026-03-27T00:00:00.000Z",
      "updated_by": "CDISC Standards Lead",
      "change_reason": "CDISC SDTM release"
    },
    {
      "study_id": "GLOBAL",
      "standard": "SDTM",
      "code": "APPP",
      "name": "Associated Persons for PP",
      "description": "Associated Persons for PP domain per CDISC specification.",
      "structure": "One record per PK parameter per time-concentration profile per modeling method per associated person",
      "cls": "FINDINGS",
      "purpose": "Tabulation",
      "key_variables": "STUDYID, DOMAIN, USUBJID, APID, POOLID",
      "version": "1.0",
      "status": "ACTIVE",
      "updated_at": "2026-03-27T00:00:00.000Z",
      "updated_by": "CDISC Standards Lead",
      "change_reason": "CDISC SDTM release"
    },
    {
      "study_id": "GLOBAL",
      "standard": "SDTM",
      "code": "APQS",
      "name": "Associated Persons for QS",
      "description": "Associated Persons for QS domain per CDISC specification.",
      "structure": "One record per questionnaire per question per time point per visit per associated person",
      "cls": "FINDINGS",
      "purpose": "Tabulation",
      "key_variables": "STUDYID, DOMAIN, USUBJID, APID, POOLID",
      "version": "1.0",
      "status": "ACTIVE",
      "updated_at": "2026-03-27T00:00:00.000Z",
      "updated_by": "CDISC Standards Lead",
      "change_reason": "CDISC SDTM release"
    },
    {
      "study_id": "GLOBAL",
      "standard": "SDTM",
      "code": "APRE",
      "name": "Associated Persons for RE",
      "description": "Associated Persons for RE domain per CDISC specification.",
      "structure": "One record per finding or result per time point per visit per associated person",
      "cls": "FINDINGS",
      "purpose": "Tabulation",
      "key_variables": "STUDYID, DOMAIN, USUBJID, APID, POOLID",
      "version": "1.0",
      "status": "ACTIVE",
      "updated_at": "2026-03-27T00:00:00.000Z",
      "updated_by": "CDISC Standards Lead",
      "change_reason": "CDISC SDTM release"
    },
    {
      "study_id": "GLOBAL",
      "standard": "SDTM",
      "code": "APRP",
      "name": "Associated Persons for RP",
      "description": "Associated Persons for RP domain per CDISC specification.",
      "structure": "One record per finding or result per time point per visit per associated person",
      "cls": "FINDINGS",
      "purpose": "Tabulation",
      "key_variables": "STUDYID, DOMAIN, USUBJID, APID, POOLID",
      "version": "1.0",
      "status": "ACTIVE",
      "updated_at": "2026-03-27T00:00:00.000Z",
      "updated_by": "CDISC Standards Lead",
      "change_reason": "CDISC SDTM release"
    },
    {
      "study_id": "GLOBAL",
      "standard": "SDTM",
      "code": "APRS",
      "name": "Associated Persons for RS",
      "description": "Associated Persons for RS domain per CDISC specification.",
      "structure": "One record per response assessment or clinical classification assessment per time point per visit per associated person per assessor per medical evaluator",
      "cls": "FINDINGS",
      "purpose": "Tabulation",
      "key_variables": "STUDYID, DOMAIN, USUBJID, APID, POOLID",
      "version": "1.0",
      "status": "ACTIVE",
      "updated_at": "2026-03-27T00:00:00.000Z",
      "updated_by": "CDISC Standards Lead",
      "change_reason": "CDISC SDTM release"
    },
    {
      "study_id": "GLOBAL",
      "standard": "SDTM",
      "code": "APSC",
      "name": "Associated Persons for SC",
      "description": "Associated Persons for SC domain per CDISC specification.",
      "structure": "One record per characteristic per visit per associated person",
      "cls": "FINDINGS",
      "purpose": "Tabulation",
      "key_variables": "STUDYID, DOMAIN, USUBJID, APID, POOLID",
      "version": "1.0",
      "status": "ACTIVE",
      "updated_at": "2026-03-27T00:00:00.000Z",
      "updated_by": "CDISC Standards Lead",
      "change_reason": "CDISC SDTM release"
    },
    {
      "study_id": "GLOBAL",
      "standard": "SDTM",
      "code": "APSS",
      "name": "Associated Persons for SS",
      "description": "Associated Persons for SS domain per CDISC specification.",
      "structure": "One record per status per visit per associated person",
      "cls": "FINDINGS",
      "purpose": "Tabulation",
      "key_variables": "STUDYID, DOMAIN, USUBJID, APID, POOLID",
      "version": "1.0",
      "status": "ACTIVE",
      "updated_at": "2026-03-27T00:00:00.000Z",
      "updated_by": "CDISC Standards Lead",
      "change_reason": "CDISC SDTM release"
    },
    {
      "study_id": "GLOBAL",
      "standard": "SDTM",
      "code": "APTR",
      "name": "Associated Persons for TR",
      "description": "Associated Persons for TR domain per CDISC specification.",
      "structure": "One record per tumor measurement/assessment per visit per associated person per assessor",
      "cls": "FINDINGS",
      "purpose": "Tabulation",
      "key_variables": "STUDYID, DOMAIN, USUBJID, APID, POOLID",
      "version": "1.0",
      "status": "ACTIVE",
      "updated_at": "2026-03-27T00:00:00.000Z",
      "updated_by": "CDISC Standards Lead",
      "change_reason": "CDISC SDTM release"
    },
    {
      "study_id": "GLOBAL",
      "standard": "SDTM",
      "code": "APTU",
      "name": "Associated Persons for TU",
      "description": "Associated Persons for TU domain per CDISC specification.",
      "structure": "One record per identified tumor per associated person per assessor",
      "cls": "FINDINGS",
      "purpose": "Tabulation",
      "key_variables": "STUDYID, DOMAIN, USUBJID, APID, POOLID",
      "version": "1.0",
      "status": "ACTIVE",
      "updated_at": "2026-03-27T00:00:00.000Z",
      "updated_by": "CDISC Standards Lead",
      "change_reason": "CDISC SDTM release"
    },
    {
      "study_id": "GLOBAL",
      "standard": "SDTM",
      "code": "APUR",
      "name": "Associated Persons for UR",
      "description": "Associated Persons for UR domain per CDISC specification.",
      "structure": "One record per finding per location per per visit per associated person",
      "cls": "FINDINGS",
      "purpose": "Tabulation",
      "key_variables": "STUDYID, DOMAIN, USUBJID, APID, POOLID",
      "version": "1.0",
      "status": "ACTIVE",
      "updated_at": "2026-03-27T00:00:00.000Z",
      "updated_by": "CDISC Standards Lead",
      "change_reason": "CDISC SDTM release"
    },
    {
      "study_id": "GLOBAL",
      "standard": "SDTM",
      "code": "APVS",
      "name": "Associated Persons for VS",
      "description": "Associated Persons for VS domain per CDISC specification.",
      "structure": "One record per vital sign measurement per time point per visit per associated person",
      "cls": "FINDINGS",
      "purpose": "Tabulation",
      "key_variables": "STUDYID, DOMAIN, USUBJID, APID, POOLID",
      "version": "1.0",
      "status": "ACTIVE",
      "updated_at": "2026-03-27T00:00:00.000Z",
      "updated_by": "CDISC Standards Lead",
      "change_reason": "CDISC SDTM release"
    },
    {
      "study_id": "GLOBAL",
      "standard": "SDTM",
      "code": "BS",
      "name": "Biospecimen Findings",
      "description": "Biospecimen Findings domain per CDISC specification.",
      "structure": "One record per measurement per biospecimen identifier per subject",
      "cls": "FINDINGS",
      "purpose": "Tabulation",
      "key_variables": "STUDYID, DOMAIN, USUBJID, POOLID, SPDEVID",
      "version": "1.0",
      "status": "ACTIVE",
      "updated_at": "2026-03-27T00:00:00.000Z",
      "updated_by": "CDISC Standards Lead",
      "change_reason": "CDISC SDTM release"
    },
    {
      "study_id": "GLOBAL",
      "standard": "SDTM",
      "code": "CP",
      "name": "Cell Phenotype Findings",
      "description": "Cell Phenotype Findings domain per CDISC specification.",
      "structure": "One record per test per specimen per timepoint per visit per subject",
      "cls": "FINDINGS",
      "purpose": "Tabulation",
      "key_variables": "STUDYID, DOMAIN, USUBJID, POOLID, SPDEVID",
      "version": "1.0",
      "status": "ACTIVE",
      "updated_at": "2026-03-27T00:00:00.000Z",
      "updated_by": "CDISC Standards Lead",
      "change_reason": "CDISC SDTM release"
    },
    {
      "study_id": "GLOBAL",
      "standard": "SDTM",
      "code": "CV",
      "name": "Cardiovascular System Findings",
      "description": "Cardiovascular System Findings domain per CDISC specification.",
      "structure": "One record per finding or result per time point per visit per subject",
      "cls": "FINDINGS",
      "purpose": "Tabulation",
      "key_variables": "STUDYID, DOMAIN, USUBJID, POOLID, SPDEVID",
      "version": "1.0",
      "status": "ACTIVE",
      "updated_at": "2026-03-27T00:00:00.000Z",
      "updated_by": "CDISC Standards Lead",
      "change_reason": "CDISC SDTM release"
    },
    {
      "study_id": "GLOBAL",
      "standard": "SDTM",
      "code": "DA",
      "name": "Product Accountability",
      "description": "Product Accountability domain per CDISC specification.",
      "structure": "One record per product accountability finding per subject",
      "cls": "FINDINGS",
      "purpose": "Tabulation",
      "key_variables": "STUDYID, DOMAIN, USUBJID, POOLID, SPDEVID",
      "version": "1.0",
      "status": "ACTIVE",
      "updated_at": "2026-03-27T00:00:00.000Z",
      "updated_by": "CDISC Standards Lead",
      "change_reason": "CDISC SDTM release"
    },
    {
      "study_id": "GLOBAL",
      "standard": "SDTM",
      "code": "DD",
      "name": "Death Details",
      "description": "Death Details domain per CDISC specification.",
      "structure": "One record per finding per subject",
      "cls": "FINDINGS",
      "purpose": "Tabulation",
      "key_variables": "STUDYID, DOMAIN, USUBJID, POOLID, SPDEVID",
      "version": "1.0",
      "status": "ACTIVE",
      "updated_at": "2026-03-27T00:00:00.000Z",
      "updated_by": "CDISC Standards Lead",
      "change_reason": "CDISC SDTM release"
    },
    {
      "study_id": "GLOBAL",
      "standard": "SDTM",
      "code": "DO",
      "name": "Device Properties",
      "description": "Device Properties domain per CDISC specification.",
      "structure": "One record per property per device",
      "cls": "FINDINGS",
      "purpose": "Tabulation",
      "key_variables": "STUDYID, DOMAIN, USUBJID, POOLID, SPDEVID",
      "version": "1.0",
      "status": "ACTIVE",
      "updated_at": "2026-03-27T00:00:00.000Z",
      "updated_by": "CDISC Standards Lead",
      "change_reason": "CDISC SDTM release"
    },
    {
      "study_id": "GLOBAL",
      "standard": "SDTM",
      "code": "DU",
      "name": "Device In-Use",
      "description": "Device In-Use domain per CDISC specification.",
      "structure": "One record per property or setting per time point per visit or test date per subject",
      "cls": "FINDINGS",
      "purpose": "Tabulation",
      "key_variables": "STUDYID, DOMAIN, USUBJID, POOLID, SPDEVID",
      "version": "1.0",
      "status": "ACTIVE",
      "updated_at": "2026-03-27T00:00:00.000Z",
      "updated_by": "CDISC Standards Lead",
      "change_reason": "CDISC SDTM release"
    },
    {
      "study_id": "GLOBAL",
      "standard": "SDTM",
      "code": "EG",
      "name": "ECG Test Results",
      "description": "ECG Test Results domain per CDISC specification.",
      "structure": "One record per ECG observation per replicate per time point or one record per ECG observation per beat per visit per subject",
      "cls": "FINDINGS",
      "purpose": "Tabulation",
      "key_variables": "STUDYID, DOMAIN, USUBJID, POOLID, SPDEVID",
      "version": "1.0",
      "status": "ACTIVE",
      "updated_at": "2026-03-27T00:00:00.000Z",
      "updated_by": "CDISC Standards Lead",
      "change_reason": "CDISC SDTM release"
    },
    {
      "study_id": "GLOBAL",
      "standard": "SDTM",
      "code": "FT",
      "name": "Functional Tests",
      "description": "Functional Tests domain per CDISC specification.",
      "structure": "One record per Functional Test finding per time point per visit per subject",
      "cls": "FINDINGS",
      "purpose": "Tabulation",
      "key_variables": "STUDYID, DOMAIN, USUBJID, POOLID, SPDEVID",
      "version": "1.0",
      "status": "ACTIVE",
      "updated_at": "2026-03-27T00:00:00.000Z",
      "updated_by": "CDISC Standards Lead",
      "change_reason": "CDISC SDTM release"
    },
    {
      "study_id": "GLOBAL",
      "standard": "SDTM",
      "code": "GF",
      "name": "Genomics Findings",
      "description": "Genomics Findings domain per CDISC specification.",
      "structure": "One record per finding per observation per biospecimen per subject",
      "cls": "FINDINGS",
      "purpose": "Tabulation",
      "key_variables": "STUDYID, DOMAIN, USUBJID, POOLID, SPDEVID",
      "version": "1.0",
      "status": "ACTIVE",
      "updated_at": "2026-03-27T00:00:00.000Z",
      "updated_by": "CDISC Standards Lead",
      "change_reason": "CDISC SDTM release"
    },
    {
      "study_id": "GLOBAL",
      "standard": "SDTM",
      "code": "IE",
      "name": "Inclusion/Exclusion Criteria Not Met",
      "description": "Inclusion/Exclusion Criteria Not Met domain per CDISC specification.",
      "structure": "One record per inclusion/exclusion criterion not met per subject",
      "cls": "FINDINGS",
      "purpose": "Tabulation",
      "key_variables": "STUDYID, DOMAIN, USUBJID, POOLID, SPDEVID",
      "version": "1.0",
      "status": "ACTIVE",
      "updated_at": "2026-03-27T00:00:00.000Z",
      "updated_by": "CDISC Standards Lead",
      "change_reason": "CDISC SDTM release"
    },
    {
      "study_id": "GLOBAL",
      "standard": "SDTM",
      "code": "IS",
      "name": "Immunogenicity Specimen Assessments",
      "description": "Immunogenicity Specimen Assessments domain per CDISC specification.",
      "structure": "One record per test per visit per subject",
      "cls": "FINDINGS",
      "purpose": "Tabulation",
      "key_variables": "STUDYID, DOMAIN, USUBJID, POOLID, SPDEVID",
      "version": "1.0",
      "status": "ACTIVE",
      "updated_at": "2026-03-27T00:00:00.000Z",
      "updated_by": "CDISC Standards Lead",
      "change_reason": "CDISC SDTM release"
    },
    {
      "study_id": "GLOBAL",
      "standard": "SDTM",
      "code": "LB",
      "name": "Laboratory Test Results",
      "description": "Laboratory Test Results domain per CDISC specification.",
      "structure": "One record per lab test per time point per visit per subject",
      "cls": "FINDINGS",
      "purpose": "Tabulation",
      "key_variables": "STUDYID, DOMAIN, USUBJID, POOLID, SPDEVID",
      "version": "1.0",
      "status": "ACTIVE",
      "updated_at": "2026-03-27T00:00:00.000Z",
      "updated_by": "CDISC Standards Lead",
      "change_reason": "CDISC SDTM release"
    },
    {
      "study_id": "GLOBAL",
      "standard": "SDTM",
      "code": "LC",
      "name": "Laboratory Results Conventional Units",
      "description": "Laboratory Results Conventional Units domain per CDISC specification.",
      "structure": "One record per lab test per time point per visit per subject",
      "cls": "FINDINGS",
      "purpose": "Tabulation",
      "key_variables": "STUDYID, DOMAIN, USUBJID, POOLID, SPDEVID",
      "version": "1.0",
      "status": "ACTIVE",
      "updated_at": "2026-03-27T00:00:00.000Z",
      "updated_by": "CDISC Standards Lead",
      "change_reason": "CDISC SDTM release"
    },
    {
      "study_id": "GLOBAL",
      "standard": "SDTM",
      "code": "MB",
      "name": "Microbiology Specimen",
      "description": "Microbiology Specimen domain per CDISC specification.",
      "structure": "One record per microbiology specimen finding per time point per visit per subject",
      "cls": "FINDINGS",
      "purpose": "Tabulation",
      "key_variables": "STUDYID, DOMAIN, USUBJID, POOLID, SPDEVID",
      "version": "1.0",
      "status": "ACTIVE",
      "updated_at": "2026-03-27T00:00:00.000Z",
      "updated_by": "CDISC Standards Lead",
      "change_reason": "CDISC SDTM release"
    },
    {
      "study_id": "GLOBAL",
      "standard": "SDTM",
      "code": "MI",
      "name": "Microscopic Findings",
      "description": "Microscopic Findings domain per CDISC specification.",
      "structure": "One record per finding per specimen per subject",
      "cls": "FINDINGS",
      "purpose": "Tabulation",
      "key_variables": "STUDYID, DOMAIN, USUBJID, POOLID, SPDEVID",
      "version": "1.0",
      "status": "ACTIVE",
      "updated_at": "2026-03-27T00:00:00.000Z",
      "updated_by": "CDISC Standards Lead",
      "change_reason": "CDISC SDTM release"
    },
    {
      "study_id": "GLOBAL",
      "standard": "SDTM",
      "code": "MK",
      "name": "Musculoskeletal System Findings",
      "description": "Musculoskeletal System Findings domain per CDISC specification.",
      "structure": "One record per assessment per visit per subject",
      "cls": "FINDINGS",
      "purpose": "Tabulation",
      "key_variables": "STUDYID, DOMAIN, USUBJID, POOLID, SPDEVID",
      "version": "1.0",
      "status": "ACTIVE",
      "updated_at": "2026-03-27T00:00:00.000Z",
      "updated_by": "CDISC Standards Lead",
      "change_reason": "CDISC SDTM release"
    },
    {
      "study_id": "GLOBAL",
      "standard": "SDTM",
      "code": "MS",
      "name": "Microbiology Susceptibility",
      "description": "Microbiology Susceptibility domain per CDISC specification.",
      "structure": "One record per microbiology susceptibility test (or other organism-related finding) per organism found in MB",
      "cls": "FINDINGS",
      "purpose": "Tabulation",
      "key_variables": "STUDYID, DOMAIN, USUBJID, POOLID, SPDEVID",
      "version": "1.0",
      "status": "ACTIVE",
      "updated_at": "2026-03-27T00:00:00.000Z",
      "updated_by": "CDISC Standards Lead",
      "change_reason": "CDISC SDTM release"
    },
    {
      "study_id": "GLOBAL",
      "standard": "SDTM",
      "code": "NV",
      "name": "Nervous System Findings",
      "description": "Nervous System Findings domain per CDISC specification.",
      "structure": "One record per finding per location per time point per visit per subject",
      "cls": "FINDINGS",
      "purpose": "Tabulation",
      "key_variables": "STUDYID, DOMAIN, USUBJID, POOLID, SPDEVID",
      "version": "1.0",
      "status": "ACTIVE",
      "updated_at": "2026-03-27T00:00:00.000Z",
      "updated_by": "CDISC Standards Lead",
      "change_reason": "CDISC SDTM release"
    },
    {
      "study_id": "GLOBAL",
      "standard": "SDTM",
      "code": "OE",
      "name": "Ophthalmic Examinations",
      "description": "Ophthalmic Examinations domain per CDISC specification.",
      "structure": "One record per ophthalmic finding per method per location, per time point per visit per subject",
      "cls": "FINDINGS",
      "purpose": "Tabulation",
      "key_variables": "STUDYID, DOMAIN, USUBJID, POOLID, SPDEVID",
      "version": "1.0",
      "status": "ACTIVE",
      "updated_at": "2026-03-27T00:00:00.000Z",
      "updated_by": "CDISC Standards Lead",
      "change_reason": "CDISC SDTM release"
    },
    {
      "study_id": "GLOBAL",
      "standard": "SDTM",
      "code": "PC",
      "name": "Pharmacokinetics Concentrations",
      "description": "Pharmacokinetics Concentrations domain per CDISC specification.",
      "structure": "One record per sample characteristic or time-point concentration per reference time point or per analyte per subject",
      "cls": "FINDINGS",
      "purpose": "Tabulation",
      "key_variables": "STUDYID, DOMAIN, USUBJID, POOLID, SPDEVID",
      "version": "1.0",
      "status": "ACTIVE",
      "updated_at": "2026-03-27T00:00:00.000Z",
      "updated_by": "CDISC Standards Lead",
      "change_reason": "CDISC SDTM release"
    },
    {
      "study_id": "GLOBAL",
      "standard": "SDTM",
      "code": "PE",
      "name": "Physical Examination",
      "description": "Physical Examination domain per CDISC specification.",
      "structure": "One record per body system or abnormality per visit per subject",
      "cls": "FINDINGS",
      "purpose": "Tabulation",
      "key_variables": "STUDYID, DOMAIN, USUBJID, POOLID, SPDEVID",
      "version": "1.0",
      "status": "ACTIVE",
      "updated_at": "2026-03-27T00:00:00.000Z",
      "updated_by": "CDISC Standards Lead",
      "change_reason": "CDISC SDTM release"
    },
    {
      "study_id": "GLOBAL",
      "standard": "SDTM",
      "code": "PP",
      "name": "Pharmacokinetics Parameters",
      "description": "Pharmacokinetics Parameters domain per CDISC specification.",
      "structure": "One record per PK parameter per time-concentration profile per modeling method per subject",
      "cls": "FINDINGS",
      "purpose": "Tabulation",
      "key_variables": "STUDYID, DOMAIN, USUBJID, POOLID, SPDEVID",
      "version": "1.0",
      "status": "ACTIVE",
      "updated_at": "2026-03-27T00:00:00.000Z",
      "updated_by": "CDISC Standards Lead",
      "change_reason": "CDISC SDTM release"
    },
    {
      "study_id": "GLOBAL",
      "standard": "SDTM",
      "code": "QS",
      "name": "Questionnaires",
      "description": "Questionnaires domain per CDISC specification.",
      "structure": "One record per questionnaire per question per time point per visit per subject",
      "cls": "FINDINGS",
      "purpose": "Tabulation",
      "key_variables": "STUDYID, DOMAIN, USUBJID, POOLID, SPDEVID",
      "version": "1.0",
      "status": "ACTIVE",
      "updated_at": "2026-03-27T00:00:00.000Z",
      "updated_by": "CDISC Standards Lead",
      "change_reason": "CDISC SDTM release"
    },
    {
      "study_id": "GLOBAL",
      "standard": "SDTM",
      "code": "RE",
      "name": "Respiratory System Findings",
      "description": "Respiratory System Findings domain per CDISC specification.",
      "structure": "One record per finding or result per time point per visit per subject",
      "cls": "FINDINGS",
      "purpose": "Tabulation",
      "key_variables": "STUDYID, DOMAIN, USUBJID, POOLID, SPDEVID",
      "version": "1.0",
      "status": "ACTIVE",
      "updated_at": "2026-03-27T00:00:00.000Z",
      "updated_by": "CDISC Standards Lead",
      "change_reason": "CDISC SDTM release"
    },
    {
      "study_id": "GLOBAL",
      "standard": "SDTM",
      "code": "RP",
      "name": "Reproductive System Findings",
      "description": "Reproductive System Findings domain per CDISC specification.",
      "structure": "One record per finding or result per time point per visit per subject",
      "cls": "FINDINGS",
      "purpose": "Tabulation",
      "key_variables": "STUDYID, DOMAIN, USUBJID, POOLID, SPDEVID",
      "version": "1.0",
      "status": "ACTIVE",
      "updated_at": "2026-03-27T00:00:00.000Z",
      "updated_by": "CDISC Standards Lead",
      "change_reason": "CDISC SDTM release"
    },
    {
      "study_id": "GLOBAL",
      "standard": "SDTM",
      "code": "RS",
      "name": "Disease Response and Clin Classification",
      "description": "Disease Response and Clin Classification domain per CDISC specification.",
      "structure": "One record per response assessment or clinical classification assessment per time point per visit per subject per assessor per medical evaluator",
      "cls": "FINDINGS",
      "purpose": "Tabulation",
      "key_variables": "STUDYID, DOMAIN, USUBJID, POOLID, SPDEVID",
      "version": "1.0",
      "status": "ACTIVE",
      "updated_at": "2026-03-27T00:00:00.000Z",
      "updated_by": "CDISC Standards Lead",
      "change_reason": "CDISC SDTM release"
    },
    {
      "study_id": "GLOBAL",
      "standard": "SDTM",
      "code": "SC",
      "name": "Subject Characteristics",
      "description": "Subject Characteristics domain per CDISC specification.",
      "structure": "One record per characteristic per visit per subject",
      "cls": "FINDINGS",
      "purpose": "Tabulation",
      "key_variables": "STUDYID, DOMAIN, USUBJID, POOLID, SPDEVID",
      "version": "1.0",
      "status": "ACTIVE",
      "updated_at": "2026-03-27T00:00:00.000Z",
      "updated_by": "CDISC Standards Lead",
      "change_reason": "CDISC SDTM release"
    },
    {
      "study_id": "GLOBAL",
      "standard": "SDTM",
      "code": "SS",
      "name": "Subject Status",
      "description": "Subject Status domain per CDISC specification.",
      "structure": "One record per status per visit per subject",
      "cls": "FINDINGS",
      "purpose": "Tabulation",
      "key_variables": "STUDYID, DOMAIN, USUBJID, POOLID, SPDEVID",
      "version": "1.0",
      "status": "ACTIVE",
      "updated_at": "2026-03-27T00:00:00.000Z",
      "updated_by": "CDISC Standards Lead",
      "change_reason": "CDISC SDTM release"
    },
    {
      "study_id": "GLOBAL",
      "standard": "SDTM",
      "code": "TR",
      "name": "Tumor/Lesion Results",
      "description": "Tumor/Lesion Results domain per CDISC specification.",
      "structure": "One record per tumor measurement/assessment per visit per subject per assessor",
      "cls": "FINDINGS",
      "purpose": "Tabulation",
      "key_variables": "STUDYID, DOMAIN, USUBJID, POOLID, SPDEVID",
      "version": "1.0",
      "status": "ACTIVE",
      "updated_at": "2026-03-27T00:00:00.000Z",
      "updated_by": "CDISC Standards Lead",
      "change_reason": "CDISC SDTM release"
    },
    {
      "study_id": "GLOBAL",
      "standard": "SDTM",
      "code": "TU",
      "name": "Tumor/Lesion Identification",
      "description": "Tumor/Lesion Identification domain per CDISC specification.",
      "structure": "One record per identified tumor per subject per assessor",
      "cls": "FINDINGS",
      "purpose": "Tabulation",
      "key_variables": "STUDYID, DOMAIN, USUBJID, POOLID, SPDEVID",
      "version": "1.0",
      "status": "ACTIVE",
      "updated_at": "2026-03-27T00:00:00.000Z",
      "updated_by": "CDISC Standards Lead",
      "change_reason": "CDISC SDTM release"
    },
    {
      "study_id": "GLOBAL",
      "standard": "SDTM",
      "code": "UR",
      "name": "Urinary System Findings",
      "description": "Urinary System Findings domain per CDISC specification.",
      "structure": "One record per finding per location per per visit per subject",
      "cls": "FINDINGS",
      "purpose": "Tabulation",
      "key_variables": "STUDYID, DOMAIN, USUBJID, POOLID, SPDEVID",
      "version": "1.0",
      "status": "ACTIVE",
      "updated_at": "2026-03-27T00:00:00.000Z",
      "updated_by": "CDISC Standards Lead",
      "change_reason": "CDISC SDTM release"
    },
    {
      "study_id": "GLOBAL",
      "standard": "SDTM",
      "code": "VS",
      "name": "Vital Signs",
      "description": "Vital Signs domain per CDISC specification.",
      "structure": "One record per vital sign measurement per time point per visit per subject",
      "cls": "FINDINGS",
      "purpose": "Tabulation",
      "key_variables": "STUDYID, DOMAIN, USUBJID, POOLID, SPDEVID",
      "version": "1.0",
      "status": "ACTIVE",
      "updated_at": "2026-03-27T00:00:00.000Z",
      "updated_by": "CDISC Standards Lead",
      "change_reason": "CDISC SDTM release"
    },
    {
      "study_id": "GLOBAL",
      "standard": "SDTM",
      "code": "AP FINDINGS ABOUT",
      "name": "Associated Persons Findings About",
      "description": "Associated Persons Findings About domain per CDISC specification.",
      "structure": "One record per finding per object per time point per time point reference per visit per subject",
      "cls": "FINDINGS ABOUT",
      "purpose": "Tabulation",
      "key_variables": "STUDYID, DOMAIN, USUBJID, APID, POOLID",
      "version": "1.0",
      "status": "ACTIVE",
      "updated_at": "2026-03-27T00:00:00.000Z",
      "updated_by": "CDISC Standards Lead",
      "change_reason": "CDISC SDTM release"
    },
    {
      "study_id": "GLOBAL",
      "standard": "SDTM",
      "code": "FINDINGS ABOUT",
      "name": "Findings About Events or Interventions",
      "description": "Findings About Events or Interventions domain per CDISC specification.",
      "structure": "One record per finding per object per time point per time point reference per visit per subject",
      "cls": "FINDINGS ABOUT",
      "purpose": "Tabulation",
      "key_variables": "STUDYID, DOMAIN, USUBJID, POOLID, SPDEVID",
      "version": "1.0",
      "status": "ACTIVE",
      "updated_at": "2026-03-27T00:00:00.000Z",
      "updated_by": "CDISC Standards Lead",
      "change_reason": "CDISC SDTM release"
    },
    {
      "study_id": "GLOBAL",
      "standard": "SDTM",
      "code": "APFA",
      "name": "Associated Persons for FA",
      "description": "Associated Persons for FA domain per CDISC specification.",
      "structure": "One record per finding, per object, per time point, per visit per associated person",
      "cls": "FINDINGS ABOUT",
      "purpose": "Tabulation",
      "key_variables": "STUDYID, DOMAIN, USUBJID, APID, POOLID",
      "version": "1.0",
      "status": "ACTIVE",
      "updated_at": "2026-03-27T00:00:00.000Z",
      "updated_by": "CDISC Standards Lead",
      "change_reason": "CDISC SDTM release"
    },
    {
      "study_id": "GLOBAL",
      "standard": "SDTM",
      "code": "APSR",
      "name": "Associated Persons for SR",
      "description": "Associated Persons for SR domain per CDISC specification.",
      "structure": "One record per finding, per object, per time point, per visit per associated person",
      "cls": "FINDINGS ABOUT",
      "purpose": "Tabulation",
      "key_variables": "STUDYID, DOMAIN, USUBJID, APID, POOLID",
      "version": "1.0",
      "status": "ACTIVE",
      "updated_at": "2026-03-27T00:00:00.000Z",
      "updated_by": "CDISC Standards Lead",
      "change_reason": "CDISC SDTM release"
    },
    {
      "study_id": "GLOBAL",
      "standard": "SDTM",
      "code": "FA",
      "name": "Findings About Events or Interventions",
      "description": "Findings About Events or Interventions domain per CDISC specification.",
      "structure": "One record per finding, per object, per time point, per visit per subject",
      "cls": "FINDINGS ABOUT",
      "purpose": "Tabulation",
      "key_variables": "STUDYID, DOMAIN, USUBJID, POOLID, SPDEVID",
      "version": "1.0",
      "status": "ACTIVE",
      "updated_at": "2026-03-27T00:00:00.000Z",
      "updated_by": "CDISC Standards Lead",
      "change_reason": "CDISC SDTM release"
    },
    {
      "study_id": "GLOBAL",
      "standard": "SDTM",
      "code": "SR",
      "name": "Skin Response",
      "description": "Skin Response domain per CDISC specification.",
      "structure": "One record per finding, per object, per time point, per visit per subject",
      "cls": "FINDINGS ABOUT",
      "purpose": "Tabulation",
      "key_variables": "STUDYID, DOMAIN, USUBJID, POOLID, SPDEVID",
      "version": "1.0",
      "status": "ACTIVE",
      "updated_at": "2026-03-27T00:00:00.000Z",
      "updated_by": "CDISC Standards Lead",
      "change_reason": "CDISC SDTM release"
    },
    {
      "study_id": "GLOBAL",
      "standard": "SDTM",
      "code": "SQAP",
      "name": "Associated Persons for SUPPQUAL",
      "description": "Associated Persons for SUPPQUAL domain per CDISC specification.",
      "structure": "One record per IDVAR, IDVARVAL, and QNAM value per associated person per related domain",
      "cls": "RELATIONSHIP",
      "purpose": "Tabulation",
      "key_variables": "STUDYID, RDOMAIN, APID, IDVAR, IDVARVAL",
      "version": "1.0",
      "status": "ACTIVE",
      "updated_at": "2026-03-27T00:00:00.000Z",
      "updated_by": "CDISC Standards Lead",
      "change_reason": "CDISC SDTM release"
    },
    {
      "study_id": "GLOBAL",
      "standard": "SDTM",
      "code": "SUPPQUAL",
      "name": "Supplemental Qualifiers",
      "description": "Supplemental Qualifiers domain per CDISC specification.",
      "structure": "One record per supplemental qualifier per related parent domain record(s)",
      "cls": "RELATIONSHIP",
      "purpose": "Tabulation",
      "key_variables": "STUDYID, RDOMAIN, USUBJID, POOLID, SPDEVID",
      "version": "1.0",
      "status": "ACTIVE",
      "updated_at": "2026-03-27T00:00:00.000Z",
      "updated_by": "CDISC Standards Lead",
      "change_reason": "CDISC SDTM release"
    },
    {
      "study_id": "GLOBAL",
      "standard": "SDTM",
      "code": "APRELSUB",
      "name": "Associated Persons Related to Subjects",
      "description": "Associated Persons Related to Subjects domain per CDISC specification.",
      "structure": "One record per relationship per related subject per associated person",
      "cls": "RELATIONSHIP",
      "purpose": "Tabulation",
      "key_variables": "STUDYID, APID, USUBJID, POOLID, RSUBJID",
      "version": "1.0",
      "status": "ACTIVE",
      "updated_at": "2026-03-27T00:00:00.000Z",
      "updated_by": "CDISC Standards Lead",
      "change_reason": "CDISC SDTM release"
    },
    {
      "study_id": "GLOBAL",
      "standard": "SDTM",
      "code": "DR",
      "name": "Device-Subject Relationships",
      "description": "Device-Subject Relationships domain per CDISC specification.",
      "structure": "One record per device/subject combination",
      "cls": "RELATIONSHIP",
      "purpose": "Tabulation",
      "key_variables": "STUDYID, DOMAIN, USUBJID, SPDEVID",
      "version": "1.0",
      "status": "ACTIVE",
      "updated_at": "2026-03-27T00:00:00.000Z",
      "updated_by": "CDISC Standards Lead",
      "change_reason": "CDISC SDTM release"
    },
    {
      "study_id": "GLOBAL",
      "standard": "SDTM",
      "code": "POOLDEF",
      "name": "Pool Definition",
      "description": "Pool Definition domain per CDISC specification.",
      "structure": "One record per STUDYID, POOLID, USUBJID",
      "cls": "RELATIONSHIP",
      "purpose": "Tabulation",
      "key_variables": "STUDYID, POOLID, USUBJID, APID",
      "version": "1.0",
      "status": "ACTIVE",
      "updated_at": "2026-03-27T00:00:00.000Z",
      "updated_by": "CDISC Standards Lead",
      "change_reason": "CDISC SDTM release"
    },
    {
      "study_id": "GLOBAL",
      "standard": "SDTM",
      "code": "RELREC",
      "name": "Related Records",
      "description": "Related Records domain per CDISC specification.",
      "structure": "One record per related record, group of records or dataset",
      "cls": "RELATIONSHIP",
      "purpose": "Tabulation",
      "key_variables": "STUDYID, RDOMAIN, USUBJID, APID, POOLID",
      "version": "1.0",
      "status": "ACTIVE",
      "updated_at": "2026-03-27T00:00:00.000Z",
      "updated_by": "CDISC Standards Lead",
      "change_reason": "CDISC SDTM release"
    },
    {
      "study_id": "GLOBAL",
      "standard": "SDTM",
      "code": "RELSPEC",
      "name": "Related Specimens",
      "description": "Related Specimens domain per CDISC specification.",
      "structure": "One record per specimen identifier per subject",
      "cls": "RELATIONSHIP",
      "purpose": "Tabulation",
      "key_variables": "STUDYID, USUBJID, POOLID, REFID, PARENT",
      "version": "1.0",
      "status": "ACTIVE",
      "updated_at": "2026-03-27T00:00:00.000Z",
      "updated_by": "CDISC Standards Lead",
      "change_reason": "CDISC SDTM release"
    },
    {
      "study_id": "GLOBAL",
      "standard": "SDTM",
      "code": "RELSUB",
      "name": "Related Subjects",
      "description": "Related Subjects domain per CDISC specification.",
      "structure": "One record per relationship per related subject per subject",
      "cls": "RELATIONSHIP",
      "purpose": "Tabulation",
      "key_variables": "STUDYID, USUBJID, POOLID, RSUBJID, SREL",
      "version": "1.0",
      "status": "ACTIVE",
      "updated_at": "2026-03-27T00:00:00.000Z",
      "updated_by": "CDISC Standards Lead",
      "change_reason": "CDISC SDTM release"
    },
    {
      "study_id": "GLOBAL",
      "standard": "SDTM",
      "code": "DI",
      "name": "Device Identifiers",
      "description": "Device Identifiers domain per CDISC specification.",
      "structure": "One record per device identifier per device",
      "cls": "STUDY REFERENCE",
      "purpose": "Tabulation",
      "key_variables": "STUDYID, DOMAIN, SPDEVID, DISEQ",
      "version": "1.0",
      "status": "ACTIVE",
      "updated_at": "2026-03-27T00:00:00.000Z",
      "updated_by": "CDISC Standards Lead",
      "change_reason": "CDISC SDTM release"
    },
    {
      "study_id": "GLOBAL",
      "standard": "SDTM",
      "code": "OI",
      "name": "Non-host Organism Identifiers",
      "description": "Non-host Organism Identifiers domain per CDISC specification.",
      "structure": "One record per taxon per non-host organism",
      "cls": "STUDY REFERENCE",
      "purpose": "Tabulation",
      "key_variables": "STUDYID, DOMAIN, NHOID, OISEQ, OIPARMCD",
      "version": "1.0",
      "status": "ACTIVE",
      "updated_at": "2026-03-27T00:00:00.000Z",
      "updated_by": "CDISC Standards Lead",
      "change_reason": "CDISC SDTM release"
    },
    {
      "study_id": "GLOBAL",
      "standard": "ADaM",
      "code": "ADSL",
      "name": "Subject-Level Analysis Dataset",
      "description": "Subject-Level Analysis Dataset dataset per CDISC specification.",
      "structure": "One record per subject",
      "cls": "SUBJECT LEVEL ANALYSIS DATASET",
      "purpose": "Analysis",
      "key_variables": "STUDYID, USUBJID, SUBJID, SITEID, SITEGR#",
      "version": "1.0",
      "status": "ACTIVE",
      "updated_at": "2026-03-27T00:00:00.000Z",
      "updated_by": "CDISC Standards Lead",
      "change_reason": "CDISC ADaM release"
    },
    {
      "study_id": "GLOBAL",
      "standard": "ADaM",
      "code": "ADDL",
      "name": "Device-level Analysis Dataset",
      "description": "Device-level Analysis Dataset dataset per CDISC specification.",
      "structure": "One record per device per subject",
      "cls": "DEVICE LEVEL ANALYSIS DATASET",
      "purpose": "Analysis",
      "key_variables": "STUDYID, SPDEVID, USUBJID, SUBJID, SITEID",
      "version": "1.0",
      "status": "ACTIVE",
      "updated_at": "2026-03-27T00:00:00.000Z",
      "updated_by": "CDISC Standards Lead",
      "change_reason": "CDISC ADaM release"
    },
    {
      "study_id": "GLOBAL",
      "standard": "ADaM",
      "code": "ADNCA",
      "name": "Non-Compartmental Analysis",
      "description": "Non-Compartmental Analysis dataset per CDISC specification.",
      "structure": "One or more records per subject per analysis parameter per analysis visit per analysis timepoint",
      "cls": "BASIC DATA STRUCTURE",
      "purpose": "Analysis",
      "key_variables": "STUDYID, USUBJID, SUBJID, SITEID, ASEQ",
      "version": "1.0",
      "status": "ACTIVE",
      "updated_at": "2026-03-27T00:00:00.000Z",
      "updated_by": "CDISC Standards Lead",
      "change_reason": "CDISC ADaM release"
    },
    {
      "study_id": "GLOBAL",
      "standard": "ADaM",
      "code": "ADPPK",
      "name": "Population PK Analysis Dataset",
      "description": "Population PK Analysis Dataset dataset per CDISC specification.",
      "structure": "One record per subject per parameter (analyte) per analysis timepoint per event (dosing or observation)",
      "cls": "BASIC DATA STRUCTURE",
      "purpose": "Analysis",
      "key_variables": "STUDYID, USUBJID, ASEQ, AFRLT, EVID",
      "version": "1.0",
      "status": "ACTIVE",
      "updated_at": "2026-03-27T00:00:00.000Z",
      "updated_by": "CDISC Standards Lead",
      "change_reason": "CDISC ADaM release"
    },
    {
      "study_id": "GLOBAL",
      "standard": "ADaM",
      "code": "BDS",
      "name": "Basic Data Structure",
      "description": "Basic Data Structure dataset per CDISC specification.",
      "structure": "One or more records per subject per analysis parameter per analysis timepoint",
      "cls": "BASIC DATA STRUCTURE",
      "purpose": "Analysis",
      "key_variables": "STUDYID, USUBJID, SUBJID, SITEID, ASEQ",
      "version": "1.0",
      "status": "ACTIVE",
      "updated_at": "2026-03-27T00:00:00.000Z",
      "updated_by": "CDISC Standards Lead",
      "change_reason": "CDISC ADaM release"
    },
    {
      "study_id": "GLOBAL",
      "standard": "ADaM",
      "code": "MDBDS",
      "name": "Medical Device Basic Data Structure",
      "description": "Medical Device Basic Data Structure dataset per CDISC specification.",
      "structure": "One or more records per device per subject per analysis parameter per analysis timepoint",
      "cls": "MEDICAL DEVICE BASIC DATA STRUCTURE",
      "purpose": "Analysis",
      "key_variables": "STUDYID, SPDEVID, USUBJID, SUBJID, SITEID",
      "version": "1.0",
      "status": "ACTIVE",
      "updated_at": "2026-03-27T00:00:00.000Z",
      "updated_by": "CDISC Standards Lead",
      "change_reason": "CDISC ADaM release"
    },
    {
      "study_id": "GLOBAL",
      "standard": "ADaM",
      "code": "OCCDS",
      "name": "Occurrence Data Structure",
      "description": "Occurrence Data Structure dataset per CDISC specification.",
      "structure": "One or more records per subject per event or intervention",
      "cls": "OCCURRENCE DATA STRUCTURE",
      "purpose": "Analysis",
      "key_variables": "STUDYID, USUBJID, SUBJID, SITEID, *SEQ",
      "version": "1.0",
      "status": "ACTIVE",
      "updated_at": "2026-03-27T00:00:00.000Z",
      "updated_by": "CDISC Standards Lead",
      "change_reason": "CDISC ADaM release"
    },
    {
      "study_id": "GLOBAL",
      "standard": "ADaM",
      "code": "ADAE",
      "name": "Analysis Adverse Events",
      "description": "Analysis Adverse Events dataset per CDISC specification.",
      "structure": "One record per subject per adverse event",
      "cls": "OCCURRENCE DATA STRUCTURE",
      "purpose": "Analysis",
      "key_variables": "STUDYID, USUBJID, SUBJID, SITEID, AESEQ",
      "version": "1.0",
      "status": "ACTIVE",
      "updated_at": "2026-03-27T00:00:00.000Z",
      "updated_by": "CDISC Standards Lead",
      "change_reason": "CDISC ADaM release"
    },
    {
      "study_id": "GLOBAL",
      "standard": "ADaM",
      "code": "MDOCCDS",
      "name": "Medical Device Occurrence Data Structure",
      "description": "Medical Device Occurrence Data Structure dataset per CDISC specification.",
      "structure": "One or more records per device per subject per event or intervention",
      "cls": "MEDICAL DEVICE OCCURRENCE DATA STRUCTURE",
      "purpose": "Analysis",
      "key_variables": "STUDYID, SPDEVID, USUBJID, SUBJID, SITEID",
      "version": "1.0",
      "status": "ACTIVE",
      "updated_at": "2026-03-27T00:00:00.000Z",
      "updated_by": "CDISC Standards Lead",
      "change_reason": "CDISC ADaM release"
    },
    {
      "study_id": "GLOBAL",
      "standard": "ADaM",
      "code": "ADAMOTHER",
      "name": "ADaM Other",
      "description": "ADaM Other dataset per CDISC specification.",
      "structure": "One or more records per subject",
      "cls": "ADAM OTHER",
      "purpose": "Analysis",
      "key_variables": "STUDYID, USUBJID, SITEID, SITEGR#, SITEGR#N",
      "version": "1.0",
      "status": "ACTIVE",
      "updated_at": "2026-03-27T00:00:00.000Z",
      "updated_by": "CDISC Standards Lead",
      "change_reason": "CDISC ADaM release"
    },
    {
      "study_id": "GLOBAL",
      "standard": "ADaM",
      "code": "AE",
      "name": "Adverse Events",
      "description": "Adverse Events dataset per CDISC specification.",
      "structure": "One record per adverse event per subject",
      "cls": "EVENTS",
      "purpose": "Analysis",
      "key_variables": "",
      "version": "1.0",
      "status": "ACTIVE",
      "updated_at": "2026-03-27T00:00:00.000Z",
      "updated_by": "CDISC Standards Lead",
      "change_reason": "CDISC ADaM release"
    },
    {
      "study_id": "GLOBAL",
      "standard": "ADaM",
      "code": "DM",
      "name": "Demographics",
      "description": "Demographics dataset per CDISC specification.",
      "structure": "One record per subject",
      "cls": "SPECIAL PURPOSE",
      "purpose": "Analysis",
      "key_variables": "",
      "version": "1.0",
      "status": "ACTIVE",
      "updated_at": "2026-03-27T00:00:00.000Z",
      "updated_by": "CDISC Standards Lead",
      "change_reason": "CDISC ADaM release"
    },
    {
      "study_id": "GLOBAL",
      "standard": "ADaM",
      "code": "EX",
      "name": "Exposure",
      "description": "Exposure dataset per CDISC specification.",
      "structure": "One record per protocol-specified study treatment, constant-dosing interval, per subject",
      "cls": "INTERVENTIONS",
      "purpose": "Analysis",
      "key_variables": "",
      "version": "1.0",
      "status": "ACTIVE",
      "updated_at": "2026-03-27T00:00:00.000Z",
      "updated_by": "CDISC Standards Lead",
      "change_reason": "CDISC ADaM release"
    },
    {
      "study_id": "GLOBAL",
      "standard": "ADaM",
      "code": "SUPPAE",
      "name": "SUPPAE",
      "description": "SUPPAE dataset per CDISC specification.",
      "structure": "Analysis dataset",
      "cls": "Analysis",
      "purpose": "Analysis",
      "key_variables": "",
      "version": "1.0",
      "status": "ACTIVE",
      "updated_at": "2026-03-27T00:00:00.000Z",
      "updated_by": "CDISC Standards Lead",
      "change_reason": "CDISC ADaM release"
    }
  ],
  "sample_codelists": [
    {
      "code": "SF6D1TC",
      "name": "SF-6Dv2 Health Utility Survey Standard, English Version 2.0 Questionnaire Test Code",
      "type": "CODELIST",
      "description": "SF-6Dv2 Health Utility Survey Standard, English Version 2.0 Questionnaire Test Code controlled terminology",
      "nci_code": "C185773",
      "source": "CDISC SDTM CT 2026-03-27",
      "version": "2026-04-10",
      "version_date": "2026-04-10",
      "extensible": "No",
      "terms": [
        {
          "order_number": 10,
          "submission_value": "SF6D101",
          "display_value": "SF6D1-Health Limit Physical Activities",
          "definition": "SF6D1-Health Limit Physical Activities — permitted value for SF-6Dv2 Health Utility Survey Standard, English Version 2.0 Questionnaire Test Code.",
          "nci_code": "C185773"
        },
        {
          "order_number": 20,
          "submission_value": "SF6D102",
          "display_value": "SF6D1-Accomplished Less Due to Problems",
          "definition": "SF6D1-Accomplished Less Due to Problems — permitted value for SF-6Dv2 Health Utility Survey Standard, English Version 2.0 Questionnaire Test Code.",
          "nci_code": "C185774"
        },
        {
          "order_number": 30,
          "submission_value": "SF6D103",
          "display_value": "SF6D1-How Much Bodily Pain Have You Had",
          "definition": "SF6D1-How Much Bodily Pain Have You Had — permitted value for SF-6Dv2 Health Utility Survey Standard, English Version 2.0 Questionnaire Test Code.",
          "nci_code": "C185775"
        },
        {
          "order_number": 40,
          "submission_value": "SF6D104",
          "display_value": "SF6D1-Time Have You Felt Worn Out",
          "definition": "SF6D1-Time Have You Felt Worn Out — permitted value for SF-6Dv2 Health Utility Survey Standard, English Version 2.0 Questionnaire Test Code.",
          "nci_code": "C185776"
        },
        {
          "order_number": 50,
          "submission_value": "SF6D105",
          "display_value": "SF6D1-Interfered With Social Activities",
          "definition": "SF6D1-Interfered With Social Activities — permitted value for SF-6Dv2 Health Utility Survey Standard, English Version 2.0 Questionnaire Test Code.",
          "nci_code": "C185777"
        },
        {
          "order_number": 60,
          "submission_value": "SF6D106",
          "display_value": "SF6D1-Time Felt Depressed/Very Nervous",
          "definition": "SF6D1-Time Felt Depressed/Very Nervous — permitted value for SF-6Dv2 Health Utility Survey Standard, English Version 2.0 Questionnaire Test Code.",
          "nci_code": "C185778"
        },
        {
          "order_number": 70,
          "submission_value": "SF6D107",
          "display_value": "SF6D1-Utility Index Score UK Weights",
          "definition": "SF6D1-Utility Index Score UK Weights — permitted value for SF-6Dv2 Health Utility Survey Standard, English Version 2.0 Questionnaire Test Code.",
          "nci_code": "C185779"
        },
        {
          "order_number": 80,
          "submission_value": "SF6D108",
          "display_value": "SF6D1-Utility Index Score CN Weights",
          "definition": "SF6D1-Utility Index Score CN Weights — permitted value for SF-6Dv2 Health Utility Survey Standard, English Version 2.0 Questionnaire Test Code.",
          "nci_code": "C185780"
        },
        {
          "order_number": 90,
          "submission_value": "SF6D109",
          "display_value": "SF6D1-Utility Index Score AU Weights",
          "definition": "SF6D1-Utility Index Score AU Weights — permitted value for SF-6Dv2 Health Utility Survey Standard, English Version 2.0 Questionnaire Test Code.",
          "nci_code": "C185781"
        },
        {
          "order_number": 100,
          "submission_value": "SF6D110",
          "display_value": "SF6D1-Utility Index Score US Weights",
          "definition": "SF6D1-Utility Index Score US Weights — permitted value for SF-6Dv2 Health Utility Survey Standard, English Version 2.0 Questionnaire Test Code.",
          "nci_code": "C185782"
        }
      ]
    },
    {
      "code": "EOR24TN",
      "name": "European Organization for the Research and Treatment of Cancer Quality of Life Questionnaire - Cholangiocarcinoma and Gallbladder Cancer 21 Items Questionnaire Test Name",
      "type": "CODELIST",
      "description": "European Organization for the Research and Treatment of Cancer Quality of Life Questionnaire - Cholangiocarcinoma and Gallbladder Cancer 21 Items Questionnaire Test Name controlled terminology",
      "nci_code": "C220298",
      "source": "CDISC SDTM CT 2026-03-27",
      "version": "2026-04-10",
      "version_date": "2026-04-10",
      "extensible": "No",
      "terms": [
        {
          "order_number": 10,
          "submission_value": "EOR24-Bloated Feeling in Abdomen",
          "display_value": "EOR24-Bloated Feeling in Abdomen",
          "definition": "EOR24-Bloated Feeling in Abdomen — permitted value for European Organization for the Research and Treatment of Cancer Quality of Life Questionnaire - Cholangiocarcinoma and Gallbladder Cancer 21 Items Questionnaire Test Name.",
          "nci_code": "C220298"
        },
        {
          "order_number": 20,
          "submission_value": "EOR24-Difficulties Drainage Tubes/Bags",
          "display_value": "EOR24-Difficulties Drainage Tubes/Bags",
          "definition": "EOR24-Difficulties Drainage Tubes/Bags — permitted value for European Organization for the Research and Treatment of Cancer Quality of Life Questionnaire - Cholangiocarcinoma and Gallbladder Cancer 21 Items Questionnaire Test Name.",
          "nci_code": "C220304"
        },
        {
          "order_number": 30,
          "submission_value": "EOR24-Extent Troubled With Side-effects",
          "display_value": "EOR24-Extent Troubled With Side-effects",
          "definition": "EOR24-Extent Troubled With Side-effects — permitted value for European Organization for the Research and Treatment of Cancer Quality of Life Questionnaire - Cholangiocarcinoma and Gallbladder Cancer 21 Items Questionnaire Test Name.",
          "nci_code": "C220303"
        },
        {
          "order_number": 40,
          "submission_value": "EOR24-Felt Full Too Quickly",
          "display_value": "EOR24-Felt Full Too Quickly",
          "definition": "EOR24-Felt Full Too Quickly — permitted value for European Organization for the Research and Treatment of Cancer Quality of Life Questionnaire - Cholangiocarcinoma and Gallbladder Cancer 21 Items Questionnaire Test Name.",
          "nci_code": "C220286"
        },
        {
          "order_number": 50,
          "submission_value": "EOR24-Felt Lacking in Energy",
          "display_value": "EOR24-Felt Lacking in Energy",
          "definition": "EOR24-Felt Lacking in Energy — permitted value for European Organization for the Research and Treatment of Cancer Quality of Life Questionnaire - Cholangiocarcinoma and Gallbladder Cancer 21 Items Questionnaire Test Name.",
          "nci_code": "C220294"
        },
        {
          "order_number": 60,
          "submission_value": "EOR24-Felt Less Able to Enjoy Yourself",
          "display_value": "EOR24-Felt Less Able to Enjoy Yourself",
          "definition": "EOR24-Felt Less Able to Enjoy Yourself — permitted value for European Organization for the Research and Treatment of Cancer Quality of Life Questionnaire - Cholangiocarcinoma and Gallbladder Cancer 21 Items Questionnaire Test Name.",
          "nci_code": "C220300"
        },
        {
          "order_number": 70,
          "submission_value": "EOR24-Felt Slowed Down",
          "display_value": "EOR24-Felt Slowed Down",
          "definition": "EOR24-Felt Slowed Down — permitted value for European Organization for the Research and Treatment of Cancer Quality of Life Questionnaire - Cholangiocarcinoma and Gallbladder Cancer 21 Items Questionnaire Test Name.",
          "nci_code": "C220293"
        },
        {
          "order_number": 80,
          "submission_value": "EOR24-Felt Stressed",
          "display_value": "EOR24-Felt Stressed",
          "definition": "EOR24-Felt Stressed — permitted value for European Organization for the Research and Treatment of Cancer Quality of Life Questionnaire - Cholangiocarcinoma and Gallbladder Cancer 21 Items Questionnaire Test Name.",
          "nci_code": "C220299"
        },
        {
          "order_number": 90,
          "submission_value": "EOR24-Itching",
          "display_value": "EOR24-Itching",
          "definition": "EOR24-Itching — permitted value for European Organization for the Research and Treatment of Cancer Quality of Life Questionnaire - Cholangiocarcinoma and Gallbladder Cancer 21 Items Questionnaire Test Name.",
          "nci_code": "C220290"
        },
        {
          "order_number": 100,
          "submission_value": "EOR24-Less Active Than You Like",
          "display_value": "EOR24-Less Active Than You Like",
          "definition": "EOR24-Less Active Than You Like — permitted value for European Organization for the Research and Treatment of Cancer Quality of Life Questionnaire - Cholangiocarcinoma and Gallbladder Cancer 21 Items Questionnaire Test Name.",
          "nci_code": "C220292"
        },
        {
          "order_number": 110,
          "submission_value": "EOR24-Pain During the Night",
          "display_value": "EOR24-Pain During the Night",
          "definition": "EOR24-Pain During the Night — permitted value for European Organization for the Research and Treatment of Cancer Quality of Life Questionnaire - Cholangiocarcinoma and Gallbladder Cancer 21 Items Questionnaire Test Name.",
          "nci_code": "C220295"
        },
        {
          "order_number": 120,
          "submission_value": "EOR24-Pain in Back",
          "display_value": "EOR24-Pain in Back",
          "definition": "EOR24-Pain in Back — permitted value for European Organization for the Research and Treatment of Cancer Quality of Life Questionnaire - Cholangiocarcinoma and Gallbladder Cancer 21 Items Questionnaire Test Name.",
          "nci_code": "C220297"
        },
        {
          "order_number": 130,
          "submission_value": "EOR24-Pain in Stomach Area",
          "display_value": "EOR24-Pain in Stomach Area",
          "definition": "EOR24-Pain in Stomach Area — permitted value for European Organization for the Research and Treatment of Cancer Quality of Life Questionnaire - Cholangiocarcinoma and Gallbladder Cancer 21 Items Questionnaire Test Name.",
          "nci_code": "C220296"
        },
        {
          "order_number": 140,
          "submission_value": "EOR24-Problems With Sense of Taste",
          "display_value": "EOR24-Problems With Sense of Taste",
          "definition": "EOR24-Problems With Sense of Taste — permitted value for European Organization for the Research and Treatment of Cancer Quality of Life Questionnaire - Cholangiocarcinoma and Gallbladder Cancer 21 Items Questionnaire Test Name.",
          "nci_code": "C220287"
        },
        {
          "order_number": 150,
          "submission_value": "EOR24-Restricted in Types of Food",
          "display_value": "EOR24-Restricted in Types of Food",
          "definition": "EOR24-Restricted in Types of Food — permitted value for European Organization for the Research and Treatment of Cancer Quality of Life Questionnaire - Cholangiocarcinoma and Gallbladder Cancer 21 Items Questionnaire Test Name.",
          "nci_code": "C220288"
        },
        {
          "order_number": 160,
          "submission_value": "EOR24-Skin/Eyes Been Yellow",
          "display_value": "EOR24-Skin/Eyes Been Yellow",
          "definition": "EOR24-Skin/Eyes Been Yellow — permitted value for European Organization for the Research and Treatment of Cancer Quality of Life Questionnaire - Cholangiocarcinoma and Gallbladder Cancer 21 Items Questionnaire Test Name.",
          "nci_code": "C220289"
        },
        {
          "order_number": 170,
          "submission_value": "EOR24-Trouble Eating",
          "display_value": "EOR24-Trouble Eating",
          "definition": "EOR24-Trouble Eating — permitted value for European Organization for the Research and Treatment of Cancer Quality of Life Questionnaire - Cholangiocarcinoma and Gallbladder Cancer 21 Items Questionnaire Test Name.",
          "nci_code": "C220285"
        },
        {
          "order_number": 180,
          "submission_value": "EOR24-Worried About Family in Future",
          "display_value": "EOR24-Worried About Family in Future",
          "definition": "EOR24-Worried About Family in Future — permitted value for European Organization for the Research and Treatment of Cancer Quality of Life Questionnaire - Cholangiocarcinoma and Gallbladder Cancer 21 Items Questionnaire Test Name.",
          "nci_code": "C220302"
        },
        {
          "order_number": 190,
          "submission_value": "EOR24-Worried About Health in Future",
          "display_value": "EOR24-Worried About Health in Future",
          "definition": "EOR24-Worried About Health in Future — permitted value for European Organization for the Research and Treatment of Cancer Quality of Life Questionnaire - Cholangiocarcinoma and Gallbladder Cancer 21 Items Questionnaire Test Name.",
          "nci_code": "C220301"
        },
        {
          "order_number": 200,
          "submission_value": "EOR24-Worried About Losing Weight",
          "display_value": "EOR24-Worried About Losing Weight",
          "definition": "EOR24-Worried About Losing Weight — permitted value for European Organization for the Research and Treatment of Cancer Quality of Life Questionnaire - Cholangiocarcinoma and Gallbladder Cancer 21 Items Questionnaire Test Name.",
          "nci_code": "C220305"
        },
        {
          "order_number": 210,
          "submission_value": "EOR24-Worried About Skin Being Yellow",
          "display_value": "EOR24-Worried About Skin Being Yellow",
          "definition": "EOR24-Worried About Skin Being Yellow — permitted value for European Organization for the Research and Treatment of Cancer Quality of Life Questionnaire - Cholangiocarcinoma and Gallbladder Cancer 21 Items Questionnaire Test Name.",
          "nci_code": "C220291"
        }
      ]
    },
    {
      "code": "APCH1TC",
      "name": "Acute Physiology and Chronic Health Evaluation II Clinical Classification Test Code",
      "type": "CODELIST",
      "description": "Acute Physiology and Chronic Health Evaluation II Clinical Classification Test Code controlled terminology",
      "nci_code": "C121096",
      "source": "CDISC SDTM CT 2026-03-27",
      "version": "2026-04-10",
      "version_date": "2026-04-10",
      "extensible": "No",
      "terms": [
        {
          "order_number": 10,
          "submission_value": "APCH101",
          "display_value": "APCH1-Temperature - Rectal",
          "definition": "APCH1-Temperature - Rectal — permitted value for Acute Physiology and Chronic Health Evaluation II Clinical Classification Test Code.",
          "nci_code": "C121096"
        },
        {
          "order_number": 20,
          "submission_value": "APCH102",
          "display_value": "APCH1-Mean Arterial Pressure",
          "definition": "APCH1-Mean Arterial Pressure — permitted value for Acute Physiology and Chronic Health Evaluation II Clinical Classification Test Code.",
          "nci_code": "C121097"
        },
        {
          "order_number": 30,
          "submission_value": "APCH103",
          "display_value": "APCH1-Heart Rate",
          "definition": "APCH1-Heart Rate — permitted value for Acute Physiology and Chronic Health Evaluation II Clinical Classification Test Code.",
          "nci_code": "C121098"
        },
        {
          "order_number": 40,
          "submission_value": "APCH104",
          "display_value": "APCH1-Respiratory Rate",
          "definition": "APCH1-Respiratory Rate — permitted value for Acute Physiology and Chronic Health Evaluation II Clinical Classification Test Code.",
          "nci_code": "C121099"
        },
        {
          "order_number": 50,
          "submission_value": "APCH105A",
          "display_value": "APCH1-Oxygenation: A-aDO2",
          "definition": "APCH1-Oxygenation: A-aDO2 — permitted value for Acute Physiology and Chronic Health Evaluation II Clinical Classification Test Code.",
          "nci_code": "C121100"
        },
        {
          "order_number": 60,
          "submission_value": "APCH105B",
          "display_value": "APCH1-Oxygenation: PaO2",
          "definition": "APCH1-Oxygenation: PaO2 — permitted value for Acute Physiology and Chronic Health Evaluation II Clinical Classification Test Code.",
          "nci_code": "C121101"
        },
        {
          "order_number": 70,
          "submission_value": "APCH106A",
          "display_value": "APCH1-Arterial pH",
          "definition": "APCH1-Arterial pH — permitted value for Acute Physiology and Chronic Health Evaluation II Clinical Classification Test Code.",
          "nci_code": "C121102"
        },
        {
          "order_number": 80,
          "submission_value": "APCH106B",
          "display_value": "APCH1-Serum HCO3",
          "definition": "APCH1-Serum HCO3 — permitted value for Acute Physiology and Chronic Health Evaluation II Clinical Classification Test Code.",
          "nci_code": "C121103"
        },
        {
          "order_number": 90,
          "submission_value": "APCH107",
          "display_value": "APCH1-Serum Sodium",
          "definition": "APCH1-Serum Sodium — permitted value for Acute Physiology and Chronic Health Evaluation II Clinical Classification Test Code.",
          "nci_code": "C121104"
        },
        {
          "order_number": 100,
          "submission_value": "APCH108",
          "display_value": "APCH1-Serum Potassium",
          "definition": "APCH1-Serum Potassium — permitted value for Acute Physiology and Chronic Health Evaluation II Clinical Classification Test Code.",
          "nci_code": "C121105"
        },
        {
          "order_number": 110,
          "submission_value": "APCH109",
          "display_value": "APCH1-Serum Creatinine",
          "definition": "APCH1-Serum Creatinine — permitted value for Acute Physiology and Chronic Health Evaluation II Clinical Classification Test Code.",
          "nci_code": "C121106"
        },
        {
          "order_number": 120,
          "submission_value": "APCH110",
          "display_value": "APCH1-Hematocrit",
          "definition": "APCH1-Hematocrit — permitted value for Acute Physiology and Chronic Health Evaluation II Clinical Classification Test Code.",
          "nci_code": "C121107"
        },
        {
          "order_number": 130,
          "submission_value": "APCH111",
          "display_value": "APCH1-White Blood Count",
          "definition": "APCH1-White Blood Count — permitted value for Acute Physiology and Chronic Health Evaluation II Clinical Classification Test Code.",
          "nci_code": "C121108"
        },
        {
          "order_number": 140,
          "submission_value": "APCH112",
          "display_value": "APCH1-15 Minus Glasgow Coma Score",
          "definition": "APCH1-15 Minus Glasgow Coma Score — permitted value for Acute Physiology and Chronic Health Evaluation II Clinical Classification Test Code.",
          "nci_code": "C121109"
        },
        {
          "order_number": 150,
          "submission_value": "APCH113",
          "display_value": "APCH1-A: Total Acute Physiology Score",
          "definition": "APCH1-A: Total Acute Physiology Score — permitted value for Acute Physiology and Chronic Health Evaluation II Clinical Classification Test Code.",
          "nci_code": "C121110"
        },
        {
          "order_number": 160,
          "submission_value": "APCH114",
          "display_value": "APCH1-B: Age Points",
          "definition": "APCH1-B: Age Points — permitted value for Acute Physiology and Chronic Health Evaluation II Clinical Classification Test Code.",
          "nci_code": "C121111"
        },
        {
          "order_number": 170,
          "submission_value": "APCH115",
          "display_value": "APCH1-C: Chronic Health Points",
          "definition": "APCH1-C: Chronic Health Points — permitted value for Acute Physiology and Chronic Health Evaluation II Clinical Classification Test Code.",
          "nci_code": "C121112"
        },
        {
          "order_number": 180,
          "submission_value": "APCH116",
          "display_value": "APCH1-Total APACHE II Score",
          "definition": "APCH1-Total APACHE II Score — permitted value for Acute Physiology and Chronic Health Evaluation II Clinical Classification Test Code.",
          "nci_code": "C121113"
        }
      ]
    },
    {
      "code": "CRSR01TN",
      "name": "JFK Coma Recovery Scale-Revised Clinical Classification Test Name",
      "type": "CODELIST",
      "description": "JFK Coma Recovery Scale-Revised Clinical Classification Test Name controlled terminology",
      "nci_code": "C124745",
      "source": "CDISC SDTM CT 2026-03-27",
      "version": "2026-04-10",
      "version_date": "2026-04-10",
      "extensible": "No",
      "terms": [
        {
          "order_number": 10,
          "submission_value": "CRSR01-Arousal Scale",
          "display_value": "CRSR01-Arousal Scale",
          "definition": "CRSR01-Arousal Scale — permitted value for JFK Coma Recovery Scale-Revised Clinical Classification Test Name.",
          "nci_code": "C124745"
        },
        {
          "order_number": 20,
          "submission_value": "CRSR01-Auditory Function Scale",
          "display_value": "CRSR01-Auditory Function Scale",
          "definition": "CRSR01-Auditory Function Scale — permitted value for JFK Coma Recovery Scale-Revised Clinical Classification Test Name.",
          "nci_code": "C124740"
        },
        {
          "order_number": 30,
          "submission_value": "CRSR01-Communication Scale",
          "display_value": "CRSR01-Communication Scale",
          "definition": "CRSR01-Communication Scale — permitted value for JFK Coma Recovery Scale-Revised Clinical Classification Test Name.",
          "nci_code": "C124744"
        },
        {
          "order_number": 40,
          "submission_value": "CRSR01-Date of Admission",
          "display_value": "CRSR01-Date of Admission",
          "definition": "CRSR01-Date of Admission — permitted value for JFK Coma Recovery Scale-Revised Clinical Classification Test Name.",
          "nci_code": "C124739"
        },
        {
          "order_number": 50,
          "submission_value": "CRSR01-Date of Onset",
          "display_value": "CRSR01-Date of Onset",
          "definition": "CRSR01-Date of Onset — permitted value for JFK Coma Recovery Scale-Revised Clinical Classification Test Name.",
          "nci_code": "C124738"
        },
        {
          "order_number": 60,
          "submission_value": "CRSR01-Diagnosis",
          "display_value": "CRSR01-Diagnosis",
          "definition": "CRSR01-Diagnosis — permitted value for JFK Coma Recovery Scale-Revised Clinical Classification Test Name.",
          "nci_code": "C124736"
        },
        {
          "order_number": 70,
          "submission_value": "CRSR01-Etiology",
          "display_value": "CRSR01-Etiology",
          "definition": "CRSR01-Etiology — permitted value for JFK Coma Recovery Scale-Revised Clinical Classification Test Name.",
          "nci_code": "C124737"
        },
        {
          "order_number": 80,
          "submission_value": "CRSR01-Motor Function Scale",
          "display_value": "CRSR01-Motor Function Scale",
          "definition": "CRSR01-Motor Function Scale — permitted value for JFK Coma Recovery Scale-Revised Clinical Classification Test Name.",
          "nci_code": "C124742"
        },
        {
          "order_number": 90,
          "submission_value": "CRSR01-Oromotor/Verbal Function",
          "display_value": "CRSR01-Oromotor/Verbal Function",
          "definition": "CRSR01-Oromotor/Verbal Function — permitted value for JFK Coma Recovery Scale-Revised Clinical Classification Test Name.",
          "nci_code": "C124743"
        },
        {
          "order_number": 100,
          "submission_value": "CRSR01-Total Score",
          "display_value": "CRSR01-Total Score",
          "definition": "CRSR01-Total Score — permitted value for JFK Coma Recovery Scale-Revised Clinical Classification Test Name.",
          "nci_code": "C124746"
        },
        {
          "order_number": 110,
          "submission_value": "CRSR01-Visual Function Scale",
          "display_value": "CRSR01-Visual Function Scale",
          "definition": "CRSR01-Visual Function Scale — permitted value for JFK Coma Recovery Scale-Revised Clinical Classification Test Name.",
          "nci_code": "C124741"
        }
      ]
    },
    {
      "code": "FAC039TC",
      "name": "Functional Assessment of Cancer Therapy-Kidney Symptom Index-15 Questionnaire Test Code",
      "type": "CODELIST",
      "description": "Functional Assessment of Cancer Therapy-Kidney Symptom Index-15 Questionnaire Test Code controlled terminology",
      "nci_code": "C138444",
      "source": "CDISC SDTM CT 2026-03-27",
      "version": "2026-04-10",
      "version_date": "2026-04-10",
      "extensible": "No",
      "terms": [
        {
          "order_number": 10,
          "submission_value": "FAC03901",
          "display_value": "FAC039-I Have a Lack of Energy",
          "definition": "FAC039-I Have a Lack of Energy — permitted value for Functional Assessment of Cancer Therapy-Kidney Symptom Index-15 Questionnaire Test Code.",
          "nci_code": "C138444"
        },
        {
          "order_number": 20,
          "submission_value": "FAC03902",
          "display_value": "FAC039-Bothered by Treatment Side Effect",
          "definition": "FAC039-Bothered by Treatment Side Effect — permitted value for Functional Assessment of Cancer Therapy-Kidney Symptom Index-15 Questionnaire Test Code.",
          "nci_code": "C138445"
        },
        {
          "order_number": 30,
          "submission_value": "FAC03903",
          "display_value": "FAC039-I Have Pain",
          "definition": "FAC039-I Have Pain — permitted value for Functional Assessment of Cancer Therapy-Kidney Symptom Index-15 Questionnaire Test Code.",
          "nci_code": "C138446"
        },
        {
          "order_number": 40,
          "submission_value": "FAC03904",
          "display_value": "FAC039-I Am Losing Weight",
          "definition": "FAC039-I Am Losing Weight — permitted value for Functional Assessment of Cancer Therapy-Kidney Symptom Index-15 Questionnaire Test Code.",
          "nci_code": "C138447"
        },
        {
          "order_number": 50,
          "submission_value": "FAC03905",
          "display_value": "FAC039-I Have Bone Pain",
          "definition": "FAC039-I Have Bone Pain — permitted value for Functional Assessment of Cancer Therapy-Kidney Symptom Index-15 Questionnaire Test Code.",
          "nci_code": "C138448"
        },
        {
          "order_number": 60,
          "submission_value": "FAC03906",
          "display_value": "FAC039-I Feel Fatigued",
          "definition": "FAC039-I Feel Fatigued — permitted value for Functional Assessment of Cancer Therapy-Kidney Symptom Index-15 Questionnaire Test Code.",
          "nci_code": "C138449"
        },
        {
          "order_number": 70,
          "submission_value": "FAC03907",
          "display_value": "FAC039-I Am Able to Enjoy Life",
          "definition": "FAC039-I Am Able to Enjoy Life — permitted value for Functional Assessment of Cancer Therapy-Kidney Symptom Index-15 Questionnaire Test Code.",
          "nci_code": "C138450"
        },
        {
          "order_number": 80,
          "submission_value": "FAC03908",
          "display_value": "FAC039-I Have Been Short of Breath",
          "definition": "FAC039-I Have Been Short of Breath — permitted value for Functional Assessment of Cancer Therapy-Kidney Symptom Index-15 Questionnaire Test Code.",
          "nci_code": "C138451"
        },
        {
          "order_number": 90,
          "submission_value": "FAC03909",
          "display_value": "FAC039-Worry My Condition Will Get Worse",
          "definition": "FAC039-Worry My Condition Will Get Worse — permitted value for Functional Assessment of Cancer Therapy-Kidney Symptom Index-15 Questionnaire Test Code.",
          "nci_code": "C138452"
        },
        {
          "order_number": 100,
          "submission_value": "FAC03910",
          "display_value": "FAC039-I Have a Good Appetite",
          "definition": "FAC039-I Have a Good Appetite — permitted value for Functional Assessment of Cancer Therapy-Kidney Symptom Index-15 Questionnaire Test Code.",
          "nci_code": "C138453"
        },
        {
          "order_number": 110,
          "submission_value": "FAC03911",
          "display_value": "FAC039-I Have Been Coughing",
          "definition": "FAC039-I Have Been Coughing — permitted value for Functional Assessment of Cancer Therapy-Kidney Symptom Index-15 Questionnaire Test Code.",
          "nci_code": "C138454"
        },
        {
          "order_number": 120,
          "submission_value": "FAC03912",
          "display_value": "FAC039-I Am Bothered by Fevers",
          "definition": "FAC039-I Am Bothered by Fevers — permitted value for Functional Assessment of Cancer Therapy-Kidney Symptom Index-15 Questionnaire Test Code.",
          "nci_code": "C138455"
        },
        {
          "order_number": 130,
          "submission_value": "FAC03913",
          "display_value": "FAC039-I Am Able to Work",
          "definition": "FAC039-I Am Able to Work — permitted value for Functional Assessment of Cancer Therapy-Kidney Symptom Index-15 Questionnaire Test Code.",
          "nci_code": "C138456"
        },
        {
          "order_number": 140,
          "submission_value": "FAC03914",
          "display_value": "FAC039-I Have Had Blood in My Urine",
          "definition": "FAC039-I Have Had Blood in My Urine — permitted value for Functional Assessment of Cancer Therapy-Kidney Symptom Index-15 Questionnaire Test Code.",
          "nci_code": "C138457"
        },
        {
          "order_number": 150,
          "submission_value": "FAC03915",
          "display_value": "FAC039-I Am Sleeping Well",
          "definition": "FAC039-I Am Sleeping Well — permitted value for Functional Assessment of Cancer Therapy-Kidney Symptom Index-15 Questionnaire Test Code.",
          "nci_code": "C138458"
        }
      ]
    },
    {
      "code": "RDQ01TN",
      "name": "Roland Morris Disability Questionnaire Questionnaire Test Name",
      "type": "CODELIST",
      "description": "Roland Morris Disability Questionnaire Questionnaire Test Name controlled terminology",
      "nci_code": "C100794",
      "source": "CDISC SDTM CT 2026-03-27",
      "version": "2026-04-10",
      "version_date": "2026-04-10",
      "extensible": "No",
      "terms": [
        {
          "order_number": 10,
          "submission_value": "RDQ01-Appetite is Not Very Good",
          "display_value": "RDQ01-Appetite is Not Very Good",
          "definition": "RDQ01-Appetite is Not Very Good — permitted value for Roland Morris Disability Questionnaire Questionnaire Test Name.",
          "nci_code": "C100794"
        },
        {
          "order_number": 20,
          "submission_value": "RDQ01-Avoid Heavy Jobs",
          "display_value": "RDQ01-Avoid Heavy Jobs",
          "definition": "RDQ01-Avoid Heavy Jobs — permitted value for Roland Morris Disability Questionnaire Questionnaire Test Name.",
          "nci_code": "C100800"
        },
        {
          "order_number": 30,
          "submission_value": "RDQ01-Change Position Frequently",
          "display_value": "RDQ01-Change Position Frequently",
          "definition": "RDQ01-Change Position Frequently — permitted value for Roland Morris Disability Questionnaire Questionnaire Test Name.",
          "nci_code": "C100781"
        },
        {
          "order_number": 40,
          "submission_value": "RDQ01-Difficult to Get Out of a Chair",
          "display_value": "RDQ01-Difficult to Get Out of a Chair",
          "definition": "RDQ01-Difficult to Get Out of a Chair — permitted value for Roland Morris Disability Questionnaire Questionnaire Test Name.",
          "nci_code": "C100791"
        },
        {
          "order_number": 50,
          "submission_value": "RDQ01-Difficult to Turn Over in Bed",
          "display_value": "RDQ01-Difficult to Turn Over in Bed",
          "definition": "RDQ01-Difficult to Turn Over in Bed — permitted value for Roland Morris Disability Questionnaire Questionnaire Test Name.",
          "nci_code": "C100793"
        },
        {
          "order_number": 60,
          "submission_value": "RDQ01-Get Dressed More Slowly",
          "display_value": "RDQ01-Get Dressed More Slowly",
          "definition": "RDQ01-Get Dressed More Slowly — permitted value for Roland Morris Disability Questionnaire Questionnaire Test Name.",
          "nci_code": "C100788"
        },
        {
          "order_number": 70,
          "submission_value": "RDQ01-Get Dressed With Help",
          "display_value": "RDQ01-Get Dressed With Help",
          "definition": "RDQ01-Get Dressed With Help — permitted value for Roland Morris Disability Questionnaire Questionnaire Test Name.",
          "nci_code": "C100798"
        },
        {
          "order_number": 80,
          "submission_value": "RDQ01-Get Other People to Do Things",
          "display_value": "RDQ01-Get Other People to Do Things",
          "definition": "RDQ01-Get Other People to Do Things — permitted value for Roland Morris Disability Questionnaire Questionnaire Test Name.",
          "nci_code": "C100787"
        },
        {
          "order_number": 90,
          "submission_value": "RDQ01-Go Upstairs More Slowly",
          "display_value": "RDQ01-Go Upstairs More Slowly",
          "definition": "RDQ01-Go Upstairs More Slowly — permitted value for Roland Morris Disability Questionnaire Questionnaire Test Name.",
          "nci_code": "C100802"
        },
        {
          "order_number": 100,
          "submission_value": "RDQ01-Hold on to Get Out of a Chair",
          "display_value": "RDQ01-Hold on to Get Out of a Chair",
          "definition": "RDQ01-Hold on to Get Out of a Chair — permitted value for Roland Morris Disability Questionnaire Questionnaire Test Name.",
          "nci_code": "C100786"
        },
        {
          "order_number": 110,
          "submission_value": "RDQ01-Lie Down to Rest More Often",
          "display_value": "RDQ01-Lie Down to Rest More Often",
          "definition": "RDQ01-Lie Down to Rest More Often — permitted value for Roland Morris Disability Questionnaire Questionnaire Test Name.",
          "nci_code": "C100785"
        },
        {
          "order_number": 120,
          "submission_value": "RDQ01-More Irritable With People",
          "display_value": "RDQ01-More Irritable With People",
          "definition": "RDQ01-More Irritable With People — permitted value for Roland Morris Disability Questionnaire Questionnaire Test Name.",
          "nci_code": "C100801"
        },
        {
          "order_number": 130,
          "submission_value": "RDQ01-Not Do Any Usual Jobs",
          "display_value": "RDQ01-Not Do Any Usual Jobs",
          "definition": "RDQ01-Not Do Any Usual Jobs — permitted value for Roland Morris Disability Questionnaire Questionnaire Test Name.",
          "nci_code": "C100783"
        },
        {
          "order_number": 140,
          "submission_value": "RDQ01-Only Stand for Short Periods",
          "display_value": "RDQ01-Only Stand for Short Periods",
          "definition": "RDQ01-Only Stand for Short Periods — permitted value for Roland Morris Disability Questionnaire Questionnaire Test Name.",
          "nci_code": "C100789"
        },
        {
          "order_number": 150,
          "submission_value": "RDQ01-Only Walk Short Distances",
          "display_value": "RDQ01-Only Walk Short Distances",
          "definition": "RDQ01-Only Walk Short Distances — permitted value for Roland Morris Disability Questionnaire Questionnaire Test Name.",
          "nci_code": "C100796"
        },
        {
          "order_number": 160,
          "submission_value": "RDQ01-Painful Almost All the Time",
          "display_value": "RDQ01-Painful Almost All the Time",
          "definition": "RDQ01-Painful Almost All the Time — permitted value for Roland Morris Disability Questionnaire Questionnaire Test Name.",
          "nci_code": "C100792"
        },
        {
          "order_number": 170,
          "submission_value": "RDQ01-RDQ Total Score",
          "display_value": "RDQ01-RDQ Total Score",
          "definition": "RDQ01-RDQ Total Score — permitted value for Roland Morris Disability Questionnaire Questionnaire Test Name.",
          "nci_code": "C100804"
        },
        {
          "order_number": 180,
          "submission_value": "RDQ01-Sit Down Most of the Day",
          "display_value": "RDQ01-Sit Down Most of the Day",
          "definition": "RDQ01-Sit Down Most of the Day — permitted value for Roland Morris Disability Questionnaire Questionnaire Test Name.",
          "nci_code": "C100799"
        },
        {
          "order_number": 190,
          "submission_value": "RDQ01-Sleep Less Well",
          "display_value": "RDQ01-Sleep Less Well",
          "definition": "RDQ01-Sleep Less Well — permitted value for Roland Morris Disability Questionnaire Questionnaire Test Name.",
          "nci_code": "C100797"
        },
        {
          "order_number": 200,
          "submission_value": "RDQ01-Stay at Home",
          "display_value": "RDQ01-Stay at Home",
          "definition": "RDQ01-Stay at Home — permitted value for Roland Morris Disability Questionnaire Questionnaire Test Name.",
          "nci_code": "C100780"
        },
        {
          "order_number": 210,
          "submission_value": "RDQ01-Stay in Bed",
          "display_value": "RDQ01-Stay in Bed",
          "definition": "RDQ01-Stay in Bed — permitted value for Roland Morris Disability Questionnaire Questionnaire Test Name.",
          "nci_code": "C100803"
        },
        {
          "order_number": 220,
          "submission_value": "RDQ01-Trouble Putting on Socks/Stockings",
          "display_value": "RDQ01-Trouble Putting on Socks/Stockings",
          "definition": "RDQ01-Trouble Putting on Socks/Stockings — permitted value for Roland Morris Disability Questionnaire Questionnaire Test Name.",
          "nci_code": "C100795"
        },
        {
          "order_number": 230,
          "submission_value": "RDQ01-Try Not to Bend or Kneel",
          "display_value": "RDQ01-Try Not to Bend or Kneel",
          "definition": "RDQ01-Try Not to Bend or Kneel — permitted value for Roland Morris Disability Questionnaire Questionnaire Test Name.",
          "nci_code": "C100790"
        },
        {
          "order_number": 240,
          "submission_value": "RDQ01-Use Handrail to Get Upstairs",
          "display_value": "RDQ01-Use Handrail to Get Upstairs",
          "definition": "RDQ01-Use Handrail to Get Upstairs — permitted value for Roland Morris Disability Questionnaire Questionnaire Test Name.",
          "nci_code": "C100784"
        },
        {
          "order_number": 250,
          "submission_value": "RDQ01-Walk More Slowly",
          "display_value": "RDQ01-Walk More Slowly",
          "definition": "RDQ01-Walk More Slowly — permitted value for Roland Morris Disability Questionnaire Questionnaire Test Name.",
          "nci_code": "C100782"
        }
      ]
    },
    {
      "code": "CPFATSCD",
      "name": "COPD Findings About Test Code",
      "type": "CODELIST",
      "description": "COPD Findings About Test Code controlled terminology",
      "nci_code": "C94596",
      "source": "CDISC SDTM CT 2026-03-27",
      "version": "2026-04-10",
      "version_date": "2026-04-10",
      "extensible": "Yes",
      "terms": [
        {
          "order_number": 10,
          "submission_value": "CUMEXP",
          "display_value": "Cumulative Exposure",
          "definition": "Cumulative Exposure — permitted value for COPD Findings About Test Code.",
          "nci_code": "C94596"
        },
        {
          "order_number": 20,
          "submission_value": "EPMLDNUM",
          "display_value": "Number of Mild Episodes",
          "definition": "Number of Mild Episodes — permitted value for COPD Findings About Test Code.",
          "nci_code": "C124328"
        },
        {
          "order_number": 30,
          "submission_value": "EPMODNUM",
          "display_value": "Number of Moderate Episodes",
          "definition": "Number of Moderate Episodes — permitted value for COPD Findings About Test Code.",
          "nci_code": "C124329"
        },
        {
          "order_number": 40,
          "submission_value": "EPSEVNUM",
          "display_value": "Number of Severe Episodes",
          "definition": "Number of Severe Episodes — permitted value for COPD Findings About Test Code.",
          "nci_code": "C124330"
        }
      ]
    },
    {
      "code": "MMS1TC",
      "name": "Mini-Mental State Examination Functional Test Test Code",
      "type": "CODELIST",
      "description": "Mini-Mental State Examination Functional Test Test Code controlled terminology",
      "nci_code": "C100543",
      "source": "CDISC SDTM CT 2026-03-27",
      "version": "2026-04-10",
      "version_date": "2026-04-10",
      "extensible": "No",
      "terms": [
        {
          "order_number": 10,
          "submission_value": "MMS101A",
          "display_value": "MMS1-What Is the Year",
          "definition": "MMS1-What Is the Year — permitted value for Mini-Mental State Examination Functional Test Test Code.",
          "nci_code": "C100543"
        },
        {
          "order_number": 20,
          "submission_value": "MMS101B",
          "display_value": "MMS1-What Is the Season",
          "definition": "MMS1-What Is the Season — permitted value for Mini-Mental State Examination Functional Test Test Code.",
          "nci_code": "C100544"
        },
        {
          "order_number": 30,
          "submission_value": "MMS101C",
          "display_value": "MMS1-What Is the Month of Year",
          "definition": "MMS1-What Is the Month of Year — permitted value for Mini-Mental State Examination Functional Test Test Code.",
          "nci_code": "C100547"
        },
        {
          "order_number": 40,
          "submission_value": "MMS101D",
          "display_value": "MMS1-What Is the Day of Week",
          "definition": "MMS1-What Is the Day of Week — permitted value for Mini-Mental State Examination Functional Test Test Code.",
          "nci_code": "C100546"
        },
        {
          "order_number": 50,
          "submission_value": "MMS101E",
          "display_value": "MMS1-What Is the Date",
          "definition": "MMS1-What Is the Date — permitted value for Mini-Mental State Examination Functional Test Test Code.",
          "nci_code": "C100545"
        },
        {
          "order_number": 60,
          "submission_value": "MMS102A",
          "display_value": "MMS1-What Is the State",
          "definition": "MMS1-What Is the State — permitted value for Mini-Mental State Examination Functional Test Test Code.",
          "nci_code": "C100549"
        },
        {
          "order_number": 70,
          "submission_value": "MMS102B",
          "display_value": "MMS1-What Is the County",
          "definition": "MMS1-What Is the County — permitted value for Mini-Mental State Examination Functional Test Test Code.",
          "nci_code": "C100550"
        },
        {
          "order_number": 80,
          "submission_value": "MMS102C",
          "display_value": "MMS1-What Is the City/Town",
          "definition": "MMS1-What Is the City/Town — permitted value for Mini-Mental State Examination Functional Test Test Code.",
          "nci_code": "C100551"
        },
        {
          "order_number": 90,
          "submission_value": "MMS102D",
          "display_value": "MMS1-What Is the Building",
          "definition": "MMS1-What Is the Building — permitted value for Mini-Mental State Examination Functional Test Test Code.",
          "nci_code": "C100552"
        },
        {
          "order_number": 100,
          "submission_value": "MMS102E",
          "display_value": "MMS1-What Is the Floor",
          "definition": "MMS1-What Is the Floor — permitted value for Mini-Mental State Examination Functional Test Test Code.",
          "nci_code": "C100553"
        },
        {
          "order_number": 110,
          "submission_value": "MMS103A",
          "display_value": "MMS1-Repeat Word 1",
          "definition": "MMS1-Repeat Word 1 — permitted value for Mini-Mental State Examination Functional Test Test Code.",
          "nci_code": "C100555"
        },
        {
          "order_number": 120,
          "submission_value": "MMS103B",
          "display_value": "MMS1-Repeat Word 2",
          "definition": "MMS1-Repeat Word 2 — permitted value for Mini-Mental State Examination Functional Test Test Code.",
          "nci_code": "C100556"
        },
        {
          "order_number": 130,
          "submission_value": "MMS103C",
          "display_value": "MMS1-Repeat Word 3",
          "definition": "MMS1-Repeat Word 3 — permitted value for Mini-Mental State Examination Functional Test Test Code.",
          "nci_code": "C100557"
        },
        {
          "order_number": 140,
          "submission_value": "MMS104",
          "display_value": "MMS1-Attention and Calculation Subtotal",
          "definition": "MMS1-Attention and Calculation Subtotal — permitted value for Mini-Mental State Examination Functional Test Test Code.",
          "nci_code": "C100570"
        },
        {
          "order_number": 150,
          "submission_value": "MMS104AA",
          "display_value": "MMS1-What is 100 Take Away 7",
          "definition": "MMS1-What is 100 Take Away 7 — permitted value for Mini-Mental State Examination Functional Test Test Code.",
          "nci_code": "C100559"
        },
        {
          "order_number": 160,
          "submission_value": "MMS104AB",
          "display_value": "MMS1-Keep Subtracting 7 Step 2",
          "definition": "MMS1-Keep Subtracting 7 Step 2 — permitted value for Mini-Mental State Examination Functional Test Test Code.",
          "nci_code": "C100560"
        },
        {
          "order_number": 170,
          "submission_value": "MMS104AC",
          "display_value": "MMS1-Keep Subtracting 7 Step 3",
          "definition": "MMS1-Keep Subtracting 7 Step 3 — permitted value for Mini-Mental State Examination Functional Test Test Code.",
          "nci_code": "C100561"
        },
        {
          "order_number": 180,
          "submission_value": "MMS104AD",
          "display_value": "MMS1-Keep Subtracting 7 Step 4",
          "definition": "MMS1-Keep Subtracting 7 Step 4 — permitted value for Mini-Mental State Examination Functional Test Test Code.",
          "nci_code": "C100562"
        },
        {
          "order_number": 190,
          "submission_value": "MMS104AE",
          "display_value": "MMS1-Keep Subtracting 7 Step 5",
          "definition": "MMS1-Keep Subtracting 7 Step 5 — permitted value for Mini-Mental State Examination Functional Test Test Code.",
          "nci_code": "C100563"
        },
        {
          "order_number": 200,
          "submission_value": "MMS104BA",
          "display_value": "MMS1-Spell Backward Letter 1",
          "definition": "MMS1-Spell Backward Letter 1 — permitted value for Mini-Mental State Examination Functional Test Test Code.",
          "nci_code": "C100565"
        },
        {
          "order_number": 210,
          "submission_value": "MMS104BB",
          "display_value": "MMS1-Spell Backward Letter 2",
          "definition": "MMS1-Spell Backward Letter 2 — permitted value for Mini-Mental State Examination Functional Test Test Code.",
          "nci_code": "C100566"
        },
        {
          "order_number": 220,
          "submission_value": "MMS104BC",
          "display_value": "MMS1-Spell Backward Letter 3",
          "definition": "MMS1-Spell Backward Letter 3 — permitted value for Mini-Mental State Examination Functional Test Test Code.",
          "nci_code": "C100567"
        },
        {
          "order_number": 230,
          "submission_value": "MMS104BD",
          "display_value": "MMS1-Spell Backward Letter 4",
          "definition": "MMS1-Spell Backward Letter 4 — permitted value for Mini-Mental State Examination Functional Test Test Code.",
          "nci_code": "C100568"
        },
        {
          "order_number": 240,
          "submission_value": "MMS104BE",
          "display_value": "MMS1-Spell Backward Letter 5",
          "definition": "MMS1-Spell Backward Letter 5 — permitted value for Mini-Mental State Examination Functional Test Test Code.",
          "nci_code": "C100569"
        },
        {
          "order_number": 250,
          "submission_value": "MMS105A",
          "display_value": "MMS1-Recall Word 1",
          "definition": "MMS1-Recall Word 1 — permitted value for Mini-Mental State Examination Functional Test Test Code.",
          "nci_code": "C100572"
        },
        {
          "order_number": 260,
          "submission_value": "MMS105B",
          "display_value": "MMS1-Recall Word 2",
          "definition": "MMS1-Recall Word 2 — permitted value for Mini-Mental State Examination Functional Test Test Code.",
          "nci_code": "C100573"
        },
        {
          "order_number": 270,
          "submission_value": "MMS105C",
          "display_value": "MMS1-Recall Word 3",
          "definition": "MMS1-Recall Word 3 — permitted value for Mini-Mental State Examination Functional Test Test Code.",
          "nci_code": "C100574"
        },
        {
          "order_number": 280,
          "submission_value": "MMS106A",
          "display_value": "MMS1-Naming Object 1",
          "definition": "MMS1-Naming Object 1 — permitted value for Mini-Mental State Examination Functional Test Test Code.",
          "nci_code": "C100576"
        },
        {
          "order_number": 290,
          "submission_value": "MMS106B",
          "display_value": "MMS1-Naming Object 2",
          "definition": "MMS1-Naming Object 2 — permitted value for Mini-Mental State Examination Functional Test Test Code.",
          "nci_code": "C100577"
        },
        {
          "order_number": 300,
          "submission_value": "MMS107",
          "display_value": "MMS1-Repeat What I Say",
          "definition": "MMS1-Repeat What I Say — permitted value for Mini-Mental State Examination Functional Test Test Code.",
          "nci_code": "C100578"
        },
        {
          "order_number": 310,
          "submission_value": "MMS108A",
          "display_value": "MMS1-Take in Right Hand",
          "definition": "MMS1-Take in Right Hand — permitted value for Mini-Mental State Examination Functional Test Test Code.",
          "nci_code": "C100580"
        },
        {
          "order_number": 320,
          "submission_value": "MMS108B",
          "display_value": "MMS1-Fold in Half",
          "definition": "MMS1-Fold in Half — permitted value for Mini-Mental State Examination Functional Test Test Code.",
          "nci_code": "C100581"
        },
        {
          "order_number": 330,
          "submission_value": "MMS108C",
          "display_value": "MMS1-Put on Floor (or Table)",
          "definition": "MMS1-Put on Floor (or Table) — permitted value for Mini-Mental State Examination Functional Test Test Code.",
          "nci_code": "C100582"
        },
        {
          "order_number": 340,
          "submission_value": "MMS109",
          "display_value": "MMS1-Read This and Do What It Says",
          "definition": "MMS1-Read This and Do What It Says — permitted value for Mini-Mental State Examination Functional Test Test Code.",
          "nci_code": "C100583"
        },
        {
          "order_number": 350,
          "submission_value": "MMS110",
          "display_value": "MMS1-Write a Sentence",
          "definition": "MMS1-Write a Sentence — permitted value for Mini-Mental State Examination Functional Test Test Code.",
          "nci_code": "C100584"
        },
        {
          "order_number": 360,
          "submission_value": "MMS111",
          "display_value": "MMS1-Copy This Design",
          "definition": "MMS1-Copy This Design — permitted value for Mini-Mental State Examination Functional Test Test Code.",
          "nci_code": "C100585"
        },
        {
          "order_number": 370,
          "submission_value": "MMS112",
          "display_value": "MMS1-Total Score",
          "definition": "MMS1-Total Score — permitted value for Mini-Mental State Examination Functional Test Test Code.",
          "nci_code": "C100586"
        },
        {
          "order_number": 380,
          "submission_value": "MMS113",
          "display_value": "MMS1-Level of Consciousness",
          "definition": "MMS1-Level of Consciousness — permitted value for Mini-Mental State Examination Functional Test Test Code.",
          "nci_code": "C136234"
        }
      ]
    },
    {
      "code": "ASEX01TN",
      "name": "Arizona Sexual Experiences Scale - Female Questionnaire Test Name",
      "type": "CODELIST",
      "description": "Arizona Sexual Experiences Scale - Female Questionnaire Test Name controlled terminology",
      "nci_code": "C129254",
      "source": "CDISC SDTM CT 2026-03-27",
      "version": "2026-04-10",
      "version_date": "2026-04-10",
      "extensible": "No",
      "terms": [
        {
          "order_number": 10,
          "submission_value": "ASEX01-Comments",
          "display_value": "ASEX01-Comments",
          "definition": "ASEX01-Comments — permitted value for Arizona Sexual Experiences Scale - Female Questionnaire Test Name.",
          "nci_code": "C129254"
        },
        {
          "order_number": 20,
          "submission_value": "ASEX01-Orgasms Satisfying",
          "display_value": "ASEX01-Orgasms Satisfying",
          "definition": "ASEX01-Orgasms Satisfying — permitted value for Arizona Sexual Experiences Scale - Female Questionnaire Test Name.",
          "nci_code": "C125767"
        },
        {
          "order_number": 30,
          "submission_value": "ASEX01-Reach Orgasm",
          "display_value": "ASEX01-Reach Orgasm",
          "definition": "ASEX01-Reach Orgasm — permitted value for Arizona Sexual Experiences Scale - Female Questionnaire Test Name.",
          "nci_code": "C125766"
        },
        {
          "order_number": 40,
          "submission_value": "ASEX01-Sex Drive",
          "display_value": "ASEX01-Sex Drive",
          "definition": "ASEX01-Sex Drive — permitted value for Arizona Sexual Experiences Scale - Female Questionnaire Test Name.",
          "nci_code": "C125763"
        },
        {
          "order_number": 50,
          "submission_value": "ASEX01-Sexually Aroused",
          "display_value": "ASEX01-Sexually Aroused",
          "definition": "ASEX01-Sexually Aroused — permitted value for Arizona Sexual Experiences Scale - Female Questionnaire Test Name.",
          "nci_code": "C125764"
        },
        {
          "order_number": 60,
          "submission_value": "ASEX01-Vagina Become Moist",
          "display_value": "ASEX01-Vagina Become Moist",
          "definition": "ASEX01-Vagina Become Moist — permitted value for Arizona Sexual Experiences Scale - Female Questionnaire Test Name.",
          "nci_code": "C125765"
        }
      ]
    },
    {
      "code": "ETRP01TC",
      "name": "Emory Treatment Resistance Interview for PTSD Clinical Classification Test Code",
      "type": "CODELIST",
      "description": "Emory Treatment Resistance Interview for PTSD Clinical Classification Test Code controlled terminology",
      "nci_code": "C161760",
      "source": "CDISC SDTM CT 2026-03-27",
      "version": "2026-04-10",
      "version_date": "2026-04-10",
      "extensible": "No",
      "terms": [
        {
          "order_number": 10,
          "submission_value": "ETRP0101",
          "display_value": "ETRP01-Medication Total Points",
          "definition": "ETRP01-Medication Total Points — permitted value for Emory Treatment Resistance Interview for PTSD Clinical Classification Test Code.",
          "nci_code": "C161760"
        },
        {
          "order_number": 20,
          "submission_value": "ETRP0102",
          "display_value": "ETRP01-Psychotherapy Total Points",
          "definition": "ETRP01-Psychotherapy Total Points — permitted value for Emory Treatment Resistance Interview for PTSD Clinical Classification Test Code.",
          "nci_code": "C161761"
        },
        {
          "order_number": 30,
          "submission_value": "ETRP0103",
          "display_value": "ETRP01-Total Points",
          "definition": "ETRP01-Total Points — permitted value for Emory Treatment Resistance Interview for PTSD Clinical Classification Test Code.",
          "nci_code": "C161762"
        }
      ]
    },
    {
      "code": "CES0102STR",
      "name": "Combat Exposure Scale Questionnaire STRESC for CES0102 TN/TC",
      "type": "CODELIST",
      "description": "Combat Exposure Scale Questionnaire STRESC for CES0102 TN/TC controlled terminology",
      "nci_code": "C180291",
      "source": "CDISC SDTM CT 2026-03-27",
      "version": "2026-04-10",
      "version_date": "2026-04-10",
      "extensible": "No",
      "terms": [
        {
          "order_number": 10,
          "submission_value": "1",
          "display_value": "1",
          "definition": "1 — permitted value for Combat Exposure Scale Questionnaire STRESC for CES0102 TN/TC.",
          "nci_code": "C180291"
        },
        {
          "order_number": 20,
          "submission_value": "2",
          "display_value": "2",
          "definition": "2 — permitted value for Combat Exposure Scale Questionnaire STRESC for CES0102 TN/TC.",
          "nci_code": "C180292"
        },
        {
          "order_number": 30,
          "submission_value": "3",
          "display_value": "3",
          "definition": "3 — permitted value for Combat Exposure Scale Questionnaire STRESC for CES0102 TN/TC.",
          "nci_code": "C180293"
        },
        {
          "order_number": 40,
          "submission_value": "4",
          "display_value": "4",
          "definition": "4 — permitted value for Combat Exposure Scale Questionnaire STRESC for CES0102 TN/TC.",
          "nci_code": "C180294"
        },
        {
          "order_number": 50,
          "submission_value": "5",
          "display_value": "5",
          "definition": "5 — permitted value for Combat Exposure Scale Questionnaire STRESC for CES0102 TN/TC.",
          "nci_code": "C180295"
        }
      ]
    },
    {
      "code": "WHIVS1TN",
      "name": "WHO Clinical Staging of HIV/AIDS for Adults and Adolescents Clinical Classification Test Name",
      "type": "CODELIST",
      "description": "WHO Clinical Staging of HIV/AIDS for Adults and Adolescents Clinical Classification Test Name controlled terminology",
      "nci_code": "C124777",
      "source": "CDISC SDTM CT 2026-03-27",
      "version": "2026-04-10",
      "version_date": "2026-04-10",
      "extensible": "No",
      "terms": [
        {
          "order_number": 10,
          "submission_value": "WHIVS1-WHO Clinical Stage of HIV/AIDS",
          "display_value": "WHIVS1-WHO Clinical Stage of HIV/AIDS",
          "definition": "WHIVS1-WHO Clinical Stage of HIV/AIDS — permitted value for WHO Clinical Staging of HIV/AIDS for Adults and Adolescents Clinical Classification Test Name.",
          "nci_code": "C124777"
        }
      ]
    },
    {
      "code": "FAC023TN",
      "name": "The Functional Assessment of Cancer Therapy-Prostate Version 4 Questionnaire Test Name",
      "type": "CODELIST",
      "description": "The Functional Assessment of Cancer Therapy-Prostate Version 4 Questionnaire Test Name controlled terminology",
      "nci_code": "C127503",
      "source": "CDISC SDTM CT 2026-03-27",
      "version": "2026-04-10",
      "version_date": "2026-04-10",
      "extensible": "No",
      "terms": [
        {
          "order_number": 10,
          "submission_value": "FAC023-Able to Have/Maintain Erection",
          "display_value": "FAC023-Able to Have/Maintain Erection",
          "definition": "FAC023-Able to Have/Maintain Erection — permitted value for The Functional Assessment of Cancer Therapy-Prostate Version 4 Questionnaire Test Name.",
          "nci_code": "C127503"
        },
        {
          "order_number": 20,
          "submission_value": "FAC023-Bothered by Treatment Side Effect",
          "display_value": "FAC023-Bothered by Treatment Side Effect",
          "definition": "FAC023-Bothered by Treatment Side Effect — permitted value for The Functional Assessment of Cancer Therapy-Prostate Version 4 Questionnaire Test Name.",
          "nci_code": "C127469"
        },
        {
          "order_number": 30,
          "submission_value": "FAC023-Certain Parts of Body Have Pain",
          "display_value": "FAC023-Certain Parts of Body Have Pain",
          "definition": "FAC023-Certain Parts of Body Have Pain — permitted value for The Functional Assessment of Cancer Therapy-Prostate Version 4 Questionnaire Test Name.",
          "nci_code": "C127495"
        },
        {
          "order_number": 40,
          "submission_value": "FAC023-Content With Quality of My Life",
          "display_value": "FAC023-Content With Quality of My Life",
          "definition": "FAC023-Content With Quality of My Life — permitted value for The Functional Assessment of Cancer Therapy-Prostate Version 4 Questionnaire Test Name.",
          "nci_code": "C127491"
        },
        {
          "order_number": 50,
          "submission_value": "FAC023-Enjoy Things I Usually Do for Fun",
          "display_value": "FAC023-Enjoy Things I Usually Do for Fun",
          "definition": "FAC023-Enjoy Things I Usually Do for Fun — permitted value for The Functional Assessment of Cancer Therapy-Prostate Version 4 Questionnaire Test Name.",
          "nci_code": "C127490"
        },
        {
          "order_number": 60,
          "submission_value": "FAC023-Get Emotional Support From Family",
          "display_value": "FAC023-Get Emotional Support From Family",
          "definition": "FAC023-Get Emotional Support From Family — permitted value for The Functional Assessment of Cancer Therapy-Prostate Version 4 Questionnaire Test Name.",
          "nci_code": "C127473"
        },
        {
          "order_number": 70,
          "submission_value": "FAC023-Have Aches/Pains That Bother Me",
          "display_value": "FAC023-Have Aches/Pains That Bother Me",
          "definition": "FAC023-Have Aches/Pains That Bother Me — permitted value for The Functional Assessment of Cancer Therapy-Prostate Version 4 Questionnaire Test Name.",
          "nci_code": "C127494"
        },
        {
          "order_number": 80,
          "submission_value": "FAC023-I Am Able to Enjoy Life",
          "display_value": "FAC023-I Am Able to Enjoy Life",
          "definition": "FAC023-I Am Able to Enjoy Life — permitted value for The Functional Assessment of Cancer Therapy-Prostate Version 4 Questionnaire Test Name.",
          "nci_code": "C127487"
        },
        {
          "order_number": 90,
          "submission_value": "FAC023-I Am Able to Feel Like a Man",
          "display_value": "FAC023-I Am Able to Feel Like a Man",
          "definition": "FAC023-I Am Able to Feel Like a Man — permitted value for The Functional Assessment of Cancer Therapy-Prostate Version 4 Questionnaire Test Name.",
          "nci_code": "C127498"
        },
        {
          "order_number": 100,
          "submission_value": "FAC023-I Am Able to Work",
          "display_value": "FAC023-I Am Able to Work",
          "definition": "FAC023-I Am Able to Work — permitted value for The Functional Assessment of Cancer Therapy-Prostate Version 4 Questionnaire Test Name.",
          "nci_code": "C127485"
        },
        {
          "order_number": 110,
          "submission_value": "FAC023-I Am Forced to Spend Time in Bed",
          "display_value": "FAC023-I Am Forced to Spend Time in Bed",
          "definition": "FAC023-I Am Forced to Spend Time in Bed — permitted value for The Functional Assessment of Cancer Therapy-Prostate Version 4 Questionnaire Test Name.",
          "nci_code": "C127471"
        },
        {
          "order_number": 120,
          "submission_value": "FAC023-I Am Losing Weight",
          "display_value": "FAC023-I Am Losing Weight",
          "definition": "FAC023-I Am Losing Weight — permitted value for The Functional Assessment of Cancer Therapy-Prostate Version 4 Questionnaire Test Name.",
          "nci_code": "C127492"
        },
        {
          "order_number": 130,
          "submission_value": "FAC023-I Am Satisfied With My Sex Life",
          "display_value": "FAC023-I Am Satisfied With My Sex Life",
          "definition": "FAC023-I Am Satisfied With My Sex Life — permitted value for The Functional Assessment of Cancer Therapy-Prostate Version 4 Questionnaire Test Name.",
          "nci_code": "C127478"
        },
        {
          "order_number": 140,
          "submission_value": "FAC023-I Am Sleeping Well",
          "display_value": "FAC023-I Am Sleeping Well",
          "definition": "FAC023-I Am Sleeping Well — permitted value for The Functional Assessment of Cancer Therapy-Prostate Version 4 Questionnaire Test Name.",
          "nci_code": "C127489"
        },
        {
          "order_number": 150,
          "submission_value": "FAC023-I Feel Close to My Friends",
          "display_value": "FAC023-I Feel Close to My Friends",
          "definition": "FAC023-I Feel Close to My Friends — permitted value for The Functional Assessment of Cancer Therapy-Prostate Version 4 Questionnaire Test Name.",
          "nci_code": "C127472"
        },
        {
          "order_number": 160,
          "submission_value": "FAC023-I Feel Close to My Partner",
          "display_value": "FAC023-I Feel Close to My Partner",
          "definition": "FAC023-I Feel Close to My Partner — permitted value for The Functional Assessment of Cancer Therapy-Prostate Version 4 Questionnaire Test Name.",
          "nci_code": "C127477"
        },
        {
          "order_number": 170,
          "submission_value": "FAC023-I Feel Ill",
          "display_value": "FAC023-I Feel Ill",
          "definition": "FAC023-I Feel Ill — permitted value for The Functional Assessment of Cancer Therapy-Prostate Version 4 Questionnaire Test Name.",
          "nci_code": "C127470"
        },
        {
          "order_number": 180,
          "submission_value": "FAC023-I Feel Nervous",
          "display_value": "FAC023-I Feel Nervous",
          "definition": "FAC023-I Feel Nervous — permitted value for The Functional Assessment of Cancer Therapy-Prostate Version 4 Questionnaire Test Name.",
          "nci_code": "C127482"
        },
        {
          "order_number": 190,
          "submission_value": "FAC023-I Feel Sad",
          "display_value": "FAC023-I Feel Sad",
          "definition": "FAC023-I Feel Sad — permitted value for The Functional Assessment of Cancer Therapy-Prostate Version 4 Questionnaire Test Name.",
          "nci_code": "C127479"
        },
        {
          "order_number": 200,
          "submission_value": "FAC023-I Get Support From My Friends",
          "display_value": "FAC023-I Get Support From My Friends",
          "definition": "FAC023-I Get Support From My Friends — permitted value for The Functional Assessment of Cancer Therapy-Prostate Version 4 Questionnaire Test Name.",
          "nci_code": "C127474"
        },
        {
          "order_number": 210,
          "submission_value": "FAC023-I Have a Good Appetite",
          "display_value": "FAC023-I Have a Good Appetite",
          "definition": "FAC023-I Have a Good Appetite — permitted value for The Functional Assessment of Cancer Therapy-Prostate Version 4 Questionnaire Test Name.",
          "nci_code": "C127493"
        },
        {
          "order_number": 220,
          "submission_value": "FAC023-I Have a Lack of Energy",
          "display_value": "FAC023-I Have a Lack of Energy",
          "definition": "FAC023-I Have a Lack of Energy — permitted value for The Functional Assessment of Cancer Therapy-Prostate Version 4 Questionnaire Test Name.",
          "nci_code": "C127465"
        },
        {
          "order_number": 230,
          "submission_value": "FAC023-I Have Accepted My Illness",
          "display_value": "FAC023-I Have Accepted My Illness",
          "definition": "FAC023-I Have Accepted My Illness — permitted value for The Functional Assessment of Cancer Therapy-Prostate Version 4 Questionnaire Test Name.",
          "nci_code": "C127488"
        },
        {
          "order_number": 240,
          "submission_value": "FAC023-I Have Difficulty Urinating",
          "display_value": "FAC023-I Have Difficulty Urinating",
          "definition": "FAC023-I Have Difficulty Urinating — permitted value for The Functional Assessment of Cancer Therapy-Prostate Version 4 Questionnaire Test Name.",
          "nci_code": "C127500"
        },
        {
          "order_number": 250,
          "submission_value": "FAC023-I Have Nausea",
          "display_value": "FAC023-I Have Nausea",
          "definition": "FAC023-I Have Nausea — permitted value for The Functional Assessment of Cancer Therapy-Prostate Version 4 Questionnaire Test Name.",
          "nci_code": "C127466"
        },
        {
          "order_number": 260,
          "submission_value": "FAC023-I Have Pain",
          "display_value": "FAC023-I Have Pain",
          "definition": "FAC023-I Have Pain — permitted value for The Functional Assessment of Cancer Therapy-Prostate Version 4 Questionnaire Test Name.",
          "nci_code": "C127468"
        },
        {
          "order_number": 270,
          "submission_value": "FAC023-I Have Trouble Moving My Bowels",
          "display_value": "FAC023-I Have Trouble Moving My Bowels",
          "definition": "FAC023-I Have Trouble Moving My Bowels — permitted value for The Functional Assessment of Cancer Therapy-Prostate Version 4 Questionnaire Test Name.",
          "nci_code": "C127499"
        },
        {
          "order_number": 280,
          "submission_value": "FAC023-I Urinate More Frequently",
          "display_value": "FAC023-I Urinate More Frequently",
          "definition": "FAC023-I Urinate More Frequently — permitted value for The Functional Assessment of Cancer Therapy-Prostate Version 4 Questionnaire Test Name.",
          "nci_code": "C127501"
        },
        {
          "order_number": 290,
          "submission_value": "FAC023-I Worry About Dying",
          "display_value": "FAC023-I Worry About Dying",
          "definition": "FAC023-I Worry About Dying — permitted value for The Functional Assessment of Cancer Therapy-Prostate Version 4 Questionnaire Test Name.",
          "nci_code": "C127483"
        },
        {
          "order_number": 300,
          "submission_value": "FAC023-Losing Hope Against Illness",
          "display_value": "FAC023-Losing Hope Against Illness",
          "definition": "FAC023-Losing Hope Against Illness — permitted value for The Functional Assessment of Cancer Therapy-Prostate Version 4 Questionnaire Test Name.",
          "nci_code": "C127481"
        },
        {
          "order_number": 310,
          "submission_value": "FAC023-My Family Has Accepted My Illness",
          "display_value": "FAC023-My Family Has Accepted My Illness",
          "definition": "FAC023-My Family Has Accepted My Illness — permitted value for The Functional Assessment of Cancer Therapy-Prostate Version 4 Questionnaire Test Name.",
          "nci_code": "C127475"
        },
        {
          "order_number": 320,
          "submission_value": "FAC023-My Work Is Fulfilling",
          "display_value": "FAC023-My Work Is Fulfilling",
          "definition": "FAC023-My Work Is Fulfilling — permitted value for The Functional Assessment of Cancer Therapy-Prostate Version 4 Questionnaire Test Name.",
          "nci_code": "C127486"
        },
        {
          "order_number": 330,
          "submission_value": "FAC023-Pain Keeps Me From Doing Things",
          "display_value": "FAC023-Pain Keeps Me From Doing Things",
          "definition": "FAC023-Pain Keeps Me From Doing Things — permitted value for The Functional Assessment of Cancer Therapy-Prostate Version 4 Questionnaire Test Name.",
          "nci_code": "C127496"
        },
        {
          "order_number": 340,
          "submission_value": "FAC023-Problem Urinating Limits Activity",
          "display_value": "FAC023-Problem Urinating Limits Activity",
          "definition": "FAC023-Problem Urinating Limits Activity — permitted value for The Functional Assessment of Cancer Therapy-Prostate Version 4 Questionnaire Test Name.",
          "nci_code": "C127502"
        },
        {
          "order_number": 350,
          "submission_value": "FAC023-Satisfied Communication Illness",
          "display_value": "FAC023-Satisfied Communication Illness",
          "definition": "FAC023-Satisfied Communication Illness — permitted value for The Functional Assessment of Cancer Therapy-Prostate Version 4 Questionnaire Test Name.",
          "nci_code": "C127476"
        },
        {
          "order_number": 360,
          "submission_value": "FAC023-Satisfied With Comfort Level",
          "display_value": "FAC023-Satisfied With Comfort Level",
          "definition": "FAC023-Satisfied With Comfort Level — permitted value for The Functional Assessment of Cancer Therapy-Prostate Version 4 Questionnaire Test Name.",
          "nci_code": "C127497"
        },
        {
          "order_number": 370,
          "submission_value": "FAC023-Satisfied With How I Am Coping",
          "display_value": "FAC023-Satisfied With How I Am Coping",
          "definition": "FAC023-Satisfied With How I Am Coping — permitted value for The Functional Assessment of Cancer Therapy-Prostate Version 4 Questionnaire Test Name.",
          "nci_code": "C127480"
        },
        {
          "order_number": 380,
          "submission_value": "FAC023-Trouble Meeting Needs of Family",
          "display_value": "FAC023-Trouble Meeting Needs of Family",
          "definition": "FAC023-Trouble Meeting Needs of Family — permitted value for The Functional Assessment of Cancer Therapy-Prostate Version 4 Questionnaire Test Name.",
          "nci_code": "C127467"
        },
        {
          "order_number": 390,
          "submission_value": "FAC023-Worry My Condition Will Get Worse",
          "display_value": "FAC023-Worry My Condition Will Get Worse",
          "definition": "FAC023-Worry My Condition Will Get Worse — permitted value for The Functional Assessment of Cancer Therapy-Prostate Version 4 Questionnaire Test Name.",
          "nci_code": "C127484"
        }
      ]
    },
    {
      "code": "OETESTCD",
      "name": "Ophthalmic Exam Test Code",
      "type": "CODELIST",
      "description": "Ophthalmic Exam Test Code controlled terminology",
      "nci_code": "C117889",
      "source": "CDISC SDTM CT 2026-03-27",
      "version": "2026-04-10",
      "version_date": "2026-04-10",
      "extensible": "Yes",
      "terms": [
        {
          "order_number": 10,
          "submission_value": "ASTAXIS",
          "display_value": "Astigmatism Axis",
          "definition": "Astigmatism Axis — permitted value for Ophthalmic Exam Test Code.",
          "nci_code": "C117889"
        },
        {
          "order_number": 20,
          "submission_value": "ATROPHY",
          "display_value": "Atrophy",
          "definition": "Atrophy — permitted value for Ophthalmic Exam Test Code.",
          "nci_code": "C214726"
        },
        {
          "order_number": 30,
          "submission_value": "CELLDENS",
          "display_value": "Cell Density",
          "definition": "Cell Density — permitted value for Ophthalmic Exam Test Code.",
          "nci_code": "C120538"
        },
        {
          "order_number": 40,
          "submission_value": "CELLDMAX",
          "display_value": "Cell Density, Maximum",
          "definition": "Cell Density, Maximum — permitted value for Ophthalmic Exam Test Code.",
          "nci_code": "C120710"
        },
        {
          "order_number": 50,
          "submission_value": "CELLDMIN",
          "display_value": "Cell Density, Minimum",
          "definition": "Cell Density, Minimum — permitted value for Ophthalmic Exam Test Code.",
          "nci_code": "C120711"
        },
        {
          "order_number": 60,
          "submission_value": "CELLDMN",
          "display_value": "Cell Density, Mean",
          "definition": "Cell Density, Mean — permitted value for Ophthalmic Exam Test Code.",
          "nci_code": "C120712"
        },
        {
          "order_number": 70,
          "submission_value": "CELLDSD",
          "display_value": "Cell Density, Standard Deviation",
          "definition": "Cell Density, Standard Deviation — permitted value for Ophthalmic Exam Test Code.",
          "nci_code": "C120713"
        },
        {
          "order_number": 80,
          "submission_value": "CLDISIND",
          "display_value": "Corrective Lens for Distance Indicator",
          "definition": "Corrective Lens for Distance Indicator — permitted value for Ophthalmic Exam Test Code.",
          "nci_code": "C181511"
        },
        {
          "order_number": 90,
          "submission_value": "CLDISTYP",
          "display_value": "Corrective Lens Type for Distance",
          "definition": "Corrective Lens Type for Distance — permitted value for Ophthalmic Exam Test Code.",
          "nci_code": "C181512"
        },
        {
          "order_number": 100,
          "submission_value": "CLIND",
          "display_value": "Corrective Lens Indicator",
          "definition": "Corrective Lens Indicator — permitted value for Ophthalmic Exam Test Code.",
          "nci_code": "C214729"
        },
        {
          "order_number": 110,
          "submission_value": "CNTFDST",
          "display_value": "Counting Fingers Distance",
          "definition": "Counting Fingers Distance — permitted value for Ophthalmic Exam Test Code.",
          "nci_code": "C214720"
        },
        {
          "order_number": 120,
          "submission_value": "CNTFIND",
          "display_value": "Counting Fingers Indicator",
          "definition": "Counting Fingers Indicator — permitted value for Ophthalmic Exam Test Code.",
          "nci_code": "C214721"
        },
        {
          "order_number": 130,
          "submission_value": "COLOR",
          "display_value": "Color",
          "definition": "Color — permitted value for Ophthalmic Exam Test Code.",
          "nci_code": "C37927"
        },
        {
          "order_number": 140,
          "submission_value": "CUPDISC",
          "display_value": "Cup to Disc Ratio",
          "definition": "Cup to Disc Ratio — permitted value for Ophthalmic Exam Test Code.",
          "nci_code": "C120714"
        },
        {
          "order_number": 150,
          "submission_value": "DBMACEGR",
          "display_value": "Diabetic Macular Edema Grade",
          "definition": "Diabetic Macular Edema Grade — permitted value for Ophthalmic Exam Test Code.",
          "nci_code": "C187961"
        },
        {
          "order_number": 160,
          "submission_value": "DBRETGR",
          "display_value": "Diabetic Retinopathy Grade",
          "definition": "Diabetic Retinopathy Grade — permitted value for Ophthalmic Exam Test Code.",
          "nci_code": "C187962"
        },
        {
          "order_number": 170,
          "submission_value": "DETACH",
          "display_value": "Detachment",
          "definition": "Detachment — permitted value for Ophthalmic Exam Test Code.",
          "nci_code": "C214728"
        },
        {
          "order_number": 180,
          "submission_value": "DIAMETER",
          "display_value": "Diameter",
          "definition": "Diameter — permitted value for Ophthalmic Exam Test Code.",
          "nci_code": "C25285"
        },
        {
          "order_number": 190,
          "submission_value": "DIAMMIN",
          "display_value": "Diameter, Minimum",
          "definition": "Diameter, Minimum — permitted value for Ophthalmic Exam Test Code.",
          "nci_code": "C120715"
        },
        {
          "order_number": 200,
          "submission_value": "DIAMMN",
          "display_value": "Diameter, Mean",
          "definition": "Diameter, Mean — permitted value for Ophthalmic Exam Test Code.",
          "nci_code": "C120716"
        },
        {
          "order_number": 210,
          "submission_value": "DIAMSD",
          "display_value": "Diameter, Standard Deviation",
          "definition": "Diameter, Standard Deviation — permitted value for Ophthalmic Exam Test Code.",
          "nci_code": "C120717"
        },
        {
          "order_number": 220,
          "submission_value": "EDEMA",
          "display_value": "Edema",
          "definition": "Edema — permitted value for Ophthalmic Exam Test Code.",
          "nci_code": "C178049"
        },
        {
          "order_number": 230,
          "submission_value": "EYDCOMGR",
          "display_value": "Eye Drop Comfort Grade",
          "definition": "Eye Drop Comfort Grade — permitted value for Ophthalmic Exam Test Code.",
          "nci_code": "C147474"
        },
        {
          "order_number": 240,
          "submission_value": "FLUID",
          "display_value": "Fluid",
          "definition": "Fluid — permitted value for Ophthalmic Exam Test Code.",
          "nci_code": "C214727"
        },
        {
          "order_number": 250,
          "submission_value": "HNDMDST",
          "display_value": "Hand Motions Distance",
          "definition": "Hand Motions Distance — permitted value for Ophthalmic Exam Test Code.",
          "nci_code": "C214722"
        },
        {
          "order_number": 260,
          "submission_value": "HNDMIND",
          "display_value": "Hand Motions Indicator",
          "definition": "Hand Motions Indicator — permitted value for Ophthalmic Exam Test Code.",
          "nci_code": "C214723"
        },
        {
          "order_number": 270,
          "submission_value": "HYPERGR",
          "display_value": "Hyperemia Grade",
          "definition": "Hyperemia Grade — permitted value for Ophthalmic Exam Test Code.",
          "nci_code": "C132432"
        },
        {
          "order_number": 280,
          "submission_value": "HYPERMIA",
          "display_value": "Hyperemia",
          "definition": "Hyperemia — permitted value for Ophthalmic Exam Test Code.",
          "nci_code": "C178048"
        },
        {
          "order_number": 290,
          "submission_value": "INTP",
          "display_value": "Interpretation",
          "definition": "Interpretation — permitted value for Ophthalmic Exam Test Code.",
          "nci_code": "C41255"
        },
        {
          "order_number": 300,
          "submission_value": "IOP",
          "display_value": "Intraocular Pressure",
          "definition": "Intraocular Pressure — permitted value for Ophthalmic Exam Test Code.",
          "nci_code": "C87143"
        },
        {
          "order_number": 310,
          "submission_value": "LDIAM",
          "display_value": "Longest Diameter",
          "definition": "Longest Diameter — permitted value for Ophthalmic Exam Test Code.",
          "nci_code": "C96684"
        },
        {
          "order_number": 320,
          "submission_value": "LENSSTAT",
          "display_value": "Lens Status",
          "definition": "Lens Status — permitted value for Ophthalmic Exam Test Code.",
          "nci_code": "C120718"
        },
        {
          "order_number": 330,
          "submission_value": "LGHTPIND",
          "display_value": "Light Perception Indicator",
          "definition": "Light Perception Indicator — permitted value for Ophthalmic Exam Test Code.",
          "nci_code": "C214724"
        },
        {
          "order_number": 340,
          "submission_value": "LOGSCORE",
          "display_value": "Log Score",
          "definition": "Log Score — permitted value for Ophthalmic Exam Test Code.",
          "nci_code": "C117890"
        },
        {
          "order_number": 350,
          "submission_value": "MLD",
          "display_value": "Margin Limbal Distance",
          "definition": "Margin Limbal Distance — permitted value for Ophthalmic Exam Test Code.",
          "nci_code": "C189626"
        },
        {
          "order_number": 360,
          "submission_value": "MNARS",
          "display_value": "Minimum Angle of Resolution",
          "definition": "Minimum Angle of Resolution — permitted value for Ophthalmic Exam Test Code.",
          "nci_code": "C142233"
        },
        {
          "order_number": 370,
          "submission_value": "MNARSLOG",
          "display_value": "Minimum Angle of Resolution, Log10",
          "definition": "Minimum Angle of Resolution, Log10 — permitted value for Ophthalmic Exam Test Code.",
          "nci_code": "C142351"
        },
        {
          "order_number": 380,
          "submission_value": "MRD1",
          "display_value": "Margin Reflex Distance 1",
          "definition": "Margin Reflex Distance 1 — permitted value for Ophthalmic Exam Test Code.",
          "nci_code": "C189624"
        },
        {
          "order_number": 390,
          "submission_value": "MRD2",
          "display_value": "Margin Reflex Distance 2",
          "definition": "Margin Reflex Distance 2 — permitted value for Ophthalmic Exam Test Code.",
          "nci_code": "C189625"
        },
        {
          "order_number": 400,
          "submission_value": "NEOVASC",
          "display_value": "Neovascularization",
          "definition": "Neovascularization — permitted value for Ophthalmic Exam Test Code.",
          "nci_code": "C214725"
        },
        {
          "order_number": 410,
          "submission_value": "NRPNTACC",
          "display_value": "Near-Point Accommodation",
          "definition": "Near-Point Accommodation — permitted value for Ophthalmic Exam Test Code.",
          "nci_code": "C142352"
        },
        {
          "order_number": 420,
          "submission_value": "NUMCHRRD",
          "display_value": "Number of Characters Read",
          "definition": "Number of Characters Read — permitted value for Ophthalmic Exam Test Code.",
          "nci_code": "C142353"
        },
        {
          "order_number": 430,
          "submission_value": "NUMCHRUR",
          "display_value": "Number of Characters Unread",
          "definition": "Number of Characters Unread — permitted value for Ophthalmic Exam Test Code.",
          "nci_code": "C142354"
        },
        {
          "order_number": 440,
          "submission_value": "NUMLCOR",
          "display_value": "Number of Letters Correct",
          "definition": "Number of Letters Correct — permitted value for Ophthalmic Exam Test Code.",
          "nci_code": "C117891"
        },
        {
          "order_number": 450,
          "submission_value": "NUMLINRD",
          "display_value": "Number of Lines Read",
          "definition": "Number of Lines Read — permitted value for Ophthalmic Exam Test Code.",
          "nci_code": "C139242"
        },
        {
          "order_number": 460,
          "submission_value": "NUMLINUR",
          "display_value": "Number of Lines Unread",
          "definition": "Number of Lines Unread — permitted value for Ophthalmic Exam Test Code.",
          "nci_code": "C142355"
        },
        {
          "order_number": 470,
          "submission_value": "OEEXAM",
          "display_value": "Ophthalmic Examination",
          "definition": "Ophthalmic Examination — permitted value for Ophthalmic Exam Test Code.",
          "nci_code": "C38060"
        },
        {
          "order_number": 480,
          "submission_value": "OPACITY",
          "display_value": "Opacity",
          "definition": "Opacity — permitted value for Ophthalmic Exam Test Code.",
          "nci_code": "C189623"
        },
        {
          "order_number": 490,
          "submission_value": "REACTIV",
          "display_value": "Reactivity",
          "definition": "Reactivity — permitted value for Ophthalmic Exam Test Code.",
          "nci_code": "C25637"
        },
        {
          "order_number": 500,
          "submission_value": "RECYLDR",
          "display_value": "Cylindrical Refraction Error",
          "definition": "Cylindrical Refraction Error — permitted value for Ophthalmic Exam Test Code.",
          "nci_code": "C117892"
        },
        {
          "order_number": 510,
          "submission_value": "RESPHERE",
          "display_value": "Spherical Refractive Error",
          "definition": "Spherical Refractive Error — permitted value for Ophthalmic Exam Test Code.",
          "nci_code": "C117893"
        },
        {
          "order_number": 520,
          "submission_value": "SCORE",
          "display_value": "Score",
          "definition": "Score — permitted value for Ophthalmic Exam Test Code.",
          "nci_code": "C25338"
        },
        {
          "order_number": 530,
          "submission_value": "SHAPE",
          "display_value": "Shape",
          "definition": "Shape — permitted value for Ophthalmic Exam Test Code.",
          "nci_code": "C25677"
        },
        {
          "order_number": 540,
          "submission_value": "SUBECADT",
          "display_value": "Subject to Eye Chart Actual Distance",
          "definition": "Subject to Eye Chart Actual Distance — permitted value for Ophthalmic Exam Test Code.",
          "nci_code": "C147475"
        },
        {
          "order_number": 550,
          "submission_value": "SUBECPDT",
          "display_value": "Subject to Eye Chart Planned Distance",
          "definition": "Subject to Eye Chart Planned Distance — permitted value for Ophthalmic Exam Test Code.",
          "nci_code": "C147476"
        },
        {
          "order_number": 560,
          "submission_value": "TBUT",
          "display_value": "Tear Breakup Time",
          "definition": "Tear Breakup Time — permitted value for Ophthalmic Exam Test Code.",
          "nci_code": "C221682"
        },
        {
          "order_number": 570,
          "submission_value": "TEARSCR",
          "display_value": "Tear Secretion",
          "definition": "Tear Secretion — permitted value for Ophthalmic Exam Test Code.",
          "nci_code": "C172574"
        },
        {
          "order_number": 580,
          "submission_value": "TEARSCRR",
          "display_value": "Tear Secretion Rate",
          "definition": "Tear Secretion Rate — permitted value for Ophthalmic Exam Test Code.",
          "nci_code": "C172575"
        },
        {
          "order_number": 590,
          "submission_value": "THICK",
          "display_value": "Thickness",
          "definition": "Thickness — permitted value for Ophthalmic Exam Test Code.",
          "nci_code": "C41145"
        },
        {
          "order_number": 600,
          "submission_value": "THICKMAX",
          "display_value": "Thickness, Maximum",
          "definition": "Thickness, Maximum — permitted value for Ophthalmic Exam Test Code.",
          "nci_code": "C120719"
        },
        {
          "order_number": 610,
          "submission_value": "THICKMIN",
          "display_value": "Thickness, Minimum",
          "definition": "Thickness, Minimum — permitted value for Ophthalmic Exam Test Code.",
          "nci_code": "C120720"
        },
        {
          "order_number": 620,
          "submission_value": "THICKMN",
          "display_value": "Thickness, Mean",
          "definition": "Thickness, Mean — permitted value for Ophthalmic Exam Test Code.",
          "nci_code": "C120721"
        },
        {
          "order_number": 630,
          "submission_value": "THICKSD",
          "display_value": "Thickness, Standard Deviation",
          "definition": "Thickness, Standard Deviation — permitted value for Ophthalmic Exam Test Code.",
          "nci_code": "C120722"
        },
        {
          "order_number": 640,
          "submission_value": "VACGRFRQ",
          "display_value": "Visual Acuity Card Grating Frequency",
          "definition": "Visual Acuity Card Grating Frequency — permitted value for Ophthalmic Exam Test Code.",
          "nci_code": "C147477"
        }
      ]
    },
    {
      "code": "HAMA101T14OR",
      "name": "Hamilton Anxiety Rating Scale Clinical Classification ORRES for HAMA101 Through HAMA114 TN/TC",
      "type": "CODELIST",
      "description": "Hamilton Anxiety Rating Scale Clinical Classification ORRES for HAMA101 Through HAMA114 TN/TC controlled terminology",
      "nci_code": "C182707",
      "source": "CDISC SDTM CT 2026-03-27",
      "version": "2026-04-10",
      "version_date": "2026-04-10",
      "extensible": "No",
      "terms": [
        {
          "order_number": 10,
          "submission_value": "Mild",
          "display_value": "Mild",
          "definition": "Mild — permitted value for Hamilton Anxiety Rating Scale Clinical Classification ORRES for HAMA101 Through HAMA114 TN/TC.",
          "nci_code": "C182707"
        },
        {
          "order_number": 20,
          "submission_value": "Moderate",
          "display_value": "Moderate",
          "definition": "Moderate — permitted value for Hamilton Anxiety Rating Scale Clinical Classification ORRES for HAMA101 Through HAMA114 TN/TC.",
          "nci_code": "C182708"
        },
        {
          "order_number": 30,
          "submission_value": "Not present",
          "display_value": "Not present",
          "definition": "Not present — permitted value for Hamilton Anxiety Rating Scale Clinical Classification ORRES for HAMA101 Through HAMA114 TN/TC.",
          "nci_code": "C182706"
        },
        {
          "order_number": 40,
          "submission_value": "Severe",
          "display_value": "Severe",
          "definition": "Severe — permitted value for Hamilton Anxiety Rating Scale Clinical Classification ORRES for HAMA101 Through HAMA114 TN/TC.",
          "nci_code": "C182709"
        },
        {
          "order_number": 50,
          "submission_value": "Very severe",
          "display_value": "Very severe",
          "definition": "Very severe — permitted value for Hamilton Anxiety Rating Scale Clinical Classification ORRES for HAMA101 Through HAMA114 TN/TC.",
          "nci_code": "C182710"
        }
      ]
    },
    {
      "code": "BPRSA1TN",
      "name": "Brief Psychiatric Rating Scale-Anchored Clinical Classification Test Name",
      "type": "CODELIST",
      "description": "Brief Psychiatric Rating Scale-Anchored Clinical Classification Test Name controlled terminology",
      "nci_code": "C100373",
      "source": "CDISC SDTM CT 2026-03-27",
      "version": "2026-04-10",
      "version_date": "2026-04-10",
      "extensible": "No",
      "terms": [
        {
          "order_number": 10,
          "submission_value": "BPRSA1-Anxiety",
          "display_value": "BPRSA1-Anxiety",
          "definition": "BPRSA1-Anxiety — permitted value for Brief Psychiatric Rating Scale-Anchored Clinical Classification Test Name.",
          "nci_code": "C100373"
        },
        {
          "order_number": 20,
          "submission_value": "BPRSA1-Blunted Affect",
          "display_value": "BPRSA1-Blunted Affect",
          "definition": "BPRSA1-Blunted Affect — permitted value for Brief Psychiatric Rating Scale-Anchored Clinical Classification Test Name.",
          "nci_code": "C100387"
        },
        {
          "order_number": 30,
          "submission_value": "BPRSA1-Conceptual Disorganization",
          "display_value": "BPRSA1-Conceptual Disorganization",
          "definition": "BPRSA1-Conceptual Disorganization — permitted value for Brief Psychiatric Rating Scale-Anchored Clinical Classification Test Name.",
          "nci_code": "C100375"
        },
        {
          "order_number": 40,
          "submission_value": "BPRSA1-Depressive Mood",
          "display_value": "BPRSA1-Depressive Mood",
          "definition": "BPRSA1-Depressive Mood — permitted value for Brief Psychiatric Rating Scale-Anchored Clinical Classification Test Name.",
          "nci_code": "C100380"
        },
        {
          "order_number": 50,
          "submission_value": "BPRSA1-Disorientation",
          "display_value": "BPRSA1-Disorientation",
          "definition": "BPRSA1-Disorientation — permitted value for Brief Psychiatric Rating Scale-Anchored Clinical Classification Test Name.",
          "nci_code": "C100389"
        },
        {
          "order_number": 60,
          "submission_value": "BPRSA1-Emotional Withdrawal",
          "display_value": "BPRSA1-Emotional Withdrawal",
          "definition": "BPRSA1-Emotional Withdrawal — permitted value for Brief Psychiatric Rating Scale-Anchored Clinical Classification Test Name.",
          "nci_code": "C100374"
        },
        {
          "order_number": 70,
          "submission_value": "BPRSA1-Excitement",
          "display_value": "BPRSA1-Excitement",
          "definition": "BPRSA1-Excitement — permitted value for Brief Psychiatric Rating Scale-Anchored Clinical Classification Test Name.",
          "nci_code": "C100388"
        },
        {
          "order_number": 80,
          "submission_value": "BPRSA1-Grandiosity",
          "display_value": "BPRSA1-Grandiosity",
          "definition": "BPRSA1-Grandiosity — permitted value for Brief Psychiatric Rating Scale-Anchored Clinical Classification Test Name.",
          "nci_code": "C100379"
        },
        {
          "order_number": 90,
          "submission_value": "BPRSA1-Guilt Feelings",
          "display_value": "BPRSA1-Guilt Feelings",
          "definition": "BPRSA1-Guilt Feelings — permitted value for Brief Psychiatric Rating Scale-Anchored Clinical Classification Test Name.",
          "nci_code": "C100376"
        },
        {
          "order_number": 100,
          "submission_value": "BPRSA1-Hallucinatory Behavior",
          "display_value": "BPRSA1-Hallucinatory Behavior",
          "definition": "BPRSA1-Hallucinatory Behavior — permitted value for Brief Psychiatric Rating Scale-Anchored Clinical Classification Test Name.",
          "nci_code": "C100383"
        },
        {
          "order_number": 110,
          "submission_value": "BPRSA1-Hostility",
          "display_value": "BPRSA1-Hostility",
          "definition": "BPRSA1-Hostility — permitted value for Brief Psychiatric Rating Scale-Anchored Clinical Classification Test Name.",
          "nci_code": "C100381"
        },
        {
          "order_number": 120,
          "submission_value": "BPRSA1-Mannerisms and Posturing",
          "display_value": "BPRSA1-Mannerisms and Posturing",
          "definition": "BPRSA1-Mannerisms and Posturing — permitted value for Brief Psychiatric Rating Scale-Anchored Clinical Classification Test Name.",
          "nci_code": "C100378"
        },
        {
          "order_number": 130,
          "submission_value": "BPRSA1-Motor Retardation",
          "display_value": "BPRSA1-Motor Retardation",
          "definition": "BPRSA1-Motor Retardation — permitted value for Brief Psychiatric Rating Scale-Anchored Clinical Classification Test Name.",
          "nci_code": "C100384"
        },
        {
          "order_number": 140,
          "submission_value": "BPRSA1-Somatic Concern",
          "display_value": "BPRSA1-Somatic Concern",
          "definition": "BPRSA1-Somatic Concern — permitted value for Brief Psychiatric Rating Scale-Anchored Clinical Classification Test Name.",
          "nci_code": "C100372"
        },
        {
          "order_number": 150,
          "submission_value": "BPRSA1-Suspiciousness",
          "display_value": "BPRSA1-Suspiciousness",
          "definition": "BPRSA1-Suspiciousness — permitted value for Brief Psychiatric Rating Scale-Anchored Clinical Classification Test Name.",
          "nci_code": "C100382"
        },
        {
          "order_number": 160,
          "submission_value": "BPRSA1-Tension",
          "display_value": "BPRSA1-Tension",
          "definition": "BPRSA1-Tension — permitted value for Brief Psychiatric Rating Scale-Anchored Clinical Classification Test Name.",
          "nci_code": "C100377"
        },
        {
          "order_number": 170,
          "submission_value": "BPRSA1-Uncooperativeness",
          "display_value": "BPRSA1-Uncooperativeness",
          "definition": "BPRSA1-Uncooperativeness — permitted value for Brief Psychiatric Rating Scale-Anchored Clinical Classification Test Name.",
          "nci_code": "C100385"
        },
        {
          "order_number": 180,
          "submission_value": "BPRSA1-Unusual Thought Content",
          "display_value": "BPRSA1-Unusual Thought Content",
          "definition": "BPRSA1-Unusual Thought Content — permitted value for Brief Psychiatric Rating Scale-Anchored Clinical Classification Test Name.",
          "nci_code": "C100386"
        }
      ]
    },
    {
      "code": "AVPU01TN",
      "name": "Alert Verbal Painful Unresponsive Scale Clinical Classification Test Name",
      "type": "CODELIST",
      "description": "Alert Verbal Painful Unresponsive Scale Clinical Classification Test Name controlled terminology",
      "nci_code": "C161740",
      "source": "CDISC SDTM CT 2026-03-27",
      "version": "2026-04-10",
      "version_date": "2026-04-10",
      "extensible": "No",
      "terms": [
        {
          "order_number": 10,
          "submission_value": "AVPU01-Responsiveness",
          "display_value": "AVPU01-Responsiveness",
          "definition": "AVPU01-Responsiveness — permitted value for Alert Verbal Painful Unresponsive Scale Clinical Classification Test Name.",
          "nci_code": "C161740"
        }
      ]
    },
    {
      "code": "RETEST",
      "name": "Respiratory Test Name",
      "type": "CODELIST",
      "description": "Respiratory Test Name controlled terminology",
      "nci_code": "C189634",
      "source": "CDISC SDTM CT 2026-03-27",
      "version": "2026-04-10",
      "version_date": "2026-04-10",
      "extensible": "Yes",
      "terms": [
        {
          "order_number": 10,
          "submission_value": "Additional Disease-Related Findings",
          "display_value": "Additional Disease-Related Findings",
          "definition": "Additional Disease-Related Findings — permitted value for Respiratory Test Name.",
          "nci_code": "C189634"
        },
        {
          "order_number": 20,
          "submission_value": "Air Trapping",
          "display_value": "Air Trapping",
          "definition": "Air Trapping — permitted value for Respiratory Test Name.",
          "nci_code": "C170620"
        },
        {
          "order_number": 30,
          "submission_value": "Airway Conductance",
          "display_value": "Airway Conductance",
          "definition": "Airway Conductance — permitted value for Respiratory Test Name.",
          "nci_code": "C124422"
        },
        {
          "order_number": 40,
          "submission_value": "Airway Resistance",
          "display_value": "Airway Resistance",
          "definition": "Airway Resistance — permitted value for Respiratory Test Name.",
          "nci_code": "C120927"
        },
        {
          "order_number": 50,
          "submission_value": "Airway Volume",
          "display_value": "Airway Volume",
          "definition": "Airway Volume — permitted value for Respiratory Test Name.",
          "nci_code": "C170457"
        },
        {
          "order_number": 60,
          "submission_value": "Airway Wall Volume",
          "display_value": "Airway Wall Volume",
          "definition": "Airway Wall Volume — permitted value for Respiratory Test Name.",
          "nci_code": "C170619"
        },
        {
          "order_number": 70,
          "submission_value": "Alveolar Volume",
          "display_value": "Alveolar Volume",
          "definition": "Alveolar Volume — permitted value for Respiratory Test Name.",
          "nci_code": "C156584"
        },
        {
          "order_number": 80,
          "submission_value": "Blood Flow Rate",
          "display_value": "Blood Flow Rate",
          "definition": "Blood Flow Rate — permitted value for Respiratory Test Name.",
          "nci_code": "C94866"
        },
        {
          "order_number": 90,
          "submission_value": "Diffusion Capacity of Lung for CO",
          "display_value": "Diffusion Capacity of Lung for CO",
          "definition": "Diffusion Capacity of Lung for CO — permitted value for Respiratory Test Name.",
          "nci_code": "C38083"
        },
        {
          "order_number": 100,
          "submission_value": "DLCO/VA",
          "display_value": "DLCO/VA",
          "definition": "DLCO/VA — permitted value for Respiratory Test Name.",
          "nci_code": "C120830"
        },
        {
          "order_number": 110,
          "submission_value": "Dominant Lung Pattern Distribution",
          "display_value": "Dominant Lung Pattern Distribution",
          "definition": "Dominant Lung Pattern Distribution — permitted value for Respiratory Test Name.",
          "nci_code": "C189633"
        },
        {
          "order_number": 120,
          "submission_value": "Dominant Lung Pattern",
          "display_value": "Dominant Lung Pattern",
          "definition": "Dominant Lung Pattern — permitted value for Respiratory Test Name.",
          "nci_code": "C189632"
        },
        {
          "order_number": 130,
          "submission_value": "Effusion Indicator",
          "display_value": "Effusion Indicator",
          "definition": "Effusion Indicator — permitted value for Respiratory Test Name.",
          "nci_code": "C161422"
        },
        {
          "order_number": 140,
          "submission_value": "Effusion Volume",
          "display_value": "Effusion Volume",
          "definition": "Effusion Volume — permitted value for Respiratory Test Name.",
          "nci_code": "C161424"
        },
        {
          "order_number": 150,
          "submission_value": "Elastance",
          "display_value": "Elastance",
          "definition": "Elastance — permitted value for Respiratory Test Name.",
          "nci_code": "C135493"
        },
        {
          "order_number": 160,
          "submission_value": "Expiration Relaxation Time",
          "display_value": "Expiration Relaxation Time",
          "definition": "Expiration Relaxation Time — permitted value for Respiratory Test Name.",
          "nci_code": "C120931"
        },
        {
          "order_number": 170,
          "submission_value": "Expiratory Reserve Volume",
          "display_value": "Expiratory Reserve Volume",
          "definition": "Expiratory Reserve Volume — permitted value for Respiratory Test Name.",
          "nci_code": "C111200"
        },
        {
          "order_number": 180,
          "submission_value": "Expiratory Vital Capacity",
          "display_value": "Expiratory Vital Capacity",
          "definition": "Expiratory Vital Capacity — permitted value for Respiratory Test Name.",
          "nci_code": "C147484"
        },
        {
          "order_number": 190,
          "submission_value": "FEV at PEF",
          "display_value": "FEV at PEF",
          "definition": "FEV at PEF — permitted value for Respiratory Test Name.",
          "nci_code": "C139249"
        },
        {
          "order_number": 200,
          "submission_value": "FEV1 Reversibility",
          "display_value": "FEV1 Reversibility",
          "definition": "FEV1 Reversibility — permitted value for Respiratory Test Name.",
          "nci_code": "C112285"
        },
        {
          "order_number": 210,
          "submission_value": "FEV1/FVC",
          "display_value": "FEV1/FVC",
          "definition": "FEV1/FVC — permitted value for Respiratory Test Name.",
          "nci_code": "C111359"
        },
        {
          "order_number": 220,
          "submission_value": "FEV1/FVC6",
          "display_value": "FEV1/FVC6",
          "definition": "FEV1/FVC6 — permitted value for Respiratory Test Name.",
          "nci_code": "C123565"
        },
        {
          "order_number": 230,
          "submission_value": "FEV1/SVC",
          "display_value": "FEV1/SVC",
          "definition": "FEV1/SVC — permitted value for Respiratory Test Name.",
          "nci_code": "C170626"
        },
        {
          "order_number": 240,
          "submission_value": "FEV3/FVC",
          "display_value": "FEV3/FVC",
          "definition": "FEV3/FVC — permitted value for Respiratory Test Name.",
          "nci_code": "C170625"
        },
        {
          "order_number": 250,
          "submission_value": "Forced Expiratory Flow 25-75%",
          "display_value": "Forced Expiratory Flow 25-75%",
          "definition": "Forced Expiratory Flow 25-75% — permitted value for Respiratory Test Name.",
          "nci_code": "C119545"
        },
        {
          "order_number": 260,
          "submission_value": "Forced Expiratory Flow 50%",
          "display_value": "Forced Expiratory Flow 50%",
          "definition": "Forced Expiratory Flow 50% — permitted value for Respiratory Test Name.",
          "nci_code": "C139253"
        },
        {
          "order_number": 270,
          "submission_value": "Forced Expiratory Flow in 0.05 Second",
          "display_value": "Forced Expiratory Flow in 0.05 Second",
          "definition": "Forced Expiratory Flow in 0.05 Second — permitted value for Respiratory Test Name.",
          "nci_code": "C139250"
        },
        {
          "order_number": 280,
          "submission_value": "Forced Expiratory Flow in 0.1 Second",
          "display_value": "Forced Expiratory Flow in 0.1 Second",
          "definition": "Forced Expiratory Flow in 0.1 Second — permitted value for Respiratory Test Name.",
          "nci_code": "C139251"
        },
        {
          "order_number": 290,
          "submission_value": "Forced Expiratory Flow in 0.2 Second",
          "display_value": "Forced Expiratory Flow in 0.2 Second",
          "definition": "Forced Expiratory Flow in 0.2 Second — permitted value for Respiratory Test Name.",
