{"version_date":"2026-03-27","domains":[{"study_id":"GLOBAL","standard":"CDASH","code":"AG","name":"Procedure Agents","description":"Procedure Agents data collection domain in CDASHIG v2.3.","structure":"One record per observation","cls":"Interventions","purpose":"Data Collection","key_variables":"STUDYID, SITEID, SUBJID","version":"2.3","status":"ACTIVE","updated_at":"2026-03-27T00:00:00.000Z","updated_by":"CDISC CDASH Team","change_reason":"CDASHIG v2.3 release"},{"study_id":"GLOBAL","standard":"CDASH","code":"CM","name":"Concomitant Medications","description":"Concomitant Medications data collection domain in CDASHIG v2.3.","structure":"One record per observation","cls":"Interventions","purpose":"Data Collection","key_variables":"STUDYID, SITEID, SUBJID","version":"2.3","status":"ACTIVE","updated_at":"2026-03-27T00:00:00.000Z","updated_by":"CDISC CDASH Team","change_reason":"CDASHIG v2.3 release"},{"study_id":"GLOBAL","standard":"CDASH","code":"EC","name":"Exposure as Collected","description":"Exposure as Collected data collection domain in CDASHIG v2.3.","structure":"One record per observation","cls":"Interventions","purpose":"Data Collection","key_variables":"STUDYID, SITEID, SUBJID","version":"2.3","status":"ACTIVE","updated_at":"2026-03-27T00:00:00.000Z","updated_by":"CDISC CDASH Team","change_reason":"CDASHIG v2.3 release"},{"study_id":"GLOBAL","standard":"CDASH","code":"EX","name":"Exposure","description":"Exposure data collection domain in CDASHIG v2.3.","structure":"One record per observation","cls":"Interventions","purpose":"Data Collection","key_variables":"STUDYID, SITEID, SUBJID","version":"2.3","status":"ACTIVE","updated_at":"2026-03-27T00:00:00.000Z","updated_by":"CDISC CDASH Team","change_reason":"CDASHIG v2.3 release"},{"study_id":"GLOBAL","standard":"CDASH","code":"ML","name":"Medical History Log","description":"Medical History Log data collection domain in CDASHIG v2.3.","structure":"One record per observation","cls":"Interventions","purpose":"Data Collection","key_variables":"STUDYID, SITEID, SUBJID","version":"2.3","status":"ACTIVE","updated_at":"2026-03-27T00:00:00.000Z","updated_by":"CDISC CDASH Team","change_reason":"CDASHIG v2.3 release"},{"study_id":"GLOBAL","standard":"CDASH","code":"PR","name":"Procedures","description":"Procedures data collection domain in CDASHIG v2.3.","structure":"One record per observation","cls":"Interventions","purpose":"Data Collection","key_variables":"STUDYID, SITEID, SUBJID","version":"2.3","status":"ACTIVE","updated_at":"2026-03-27T00:00:00.000Z","updated_by":"CDISC CDASH Team","change_reason":"CDASHIG v2.3 release"},{"study_id":"GLOBAL","standard":"CDASH","code":"SU","name":"Substance Use","description":"Substance Use data collection domain in CDASHIG v2.3.","structure":"One record per observation","cls":"Interventions","purpose":"Data Collection","key_variables":"STUDYID, SITEID, SUBJID","version":"2.3","status":"ACTIVE","updated_at":"2026-03-27T00:00:00.000Z","updated_by":"CDISC CDASH Team","change_reason":"CDASHIG v2.3 release"},{"study_id":"GLOBAL","standard":"CDASH","code":"AE","name":"Adverse Events","description":"Adverse Events data collection domain in CDASHIG v2.3.","structure":"One record per observation","cls":"Events","purpose":"Data Collection","key_variables":"STUDYID, SITEID, SUBJID","version":"2.3","status":"ACTIVE","updated_at":"2026-03-27T00:00:00.000Z","updated_by":"CDISC CDASH Team","change_reason":"CDASHIG v2.3 release"},{"study_id":"GLOBAL","standard":"CDASH","code":"CE","name":"Clinical Events","description":"Clinical Events data collection domain in CDASHIG v2.3.","structure":"One record per observation","cls":"Events","purpose":"Data Collection","key_variables":"STUDYID, SITEID, SUBJID","version":"2.3","status":"ACTIVE","updated_at":"2026-03-27T00:00:00.000Z","updated_by":"CDISC CDASH Team","change_reason":"CDASHIG v2.3 release"},{"study_id":"GLOBAL","standard":"CDASH","code":"DV","name":"Protocol Deviations","description":"Protocol Deviations data collection domain in CDASHIG v2.3.","structure":"One record per observation","cls":"Events","purpose":"Data Collection","key_variables":"STUDYID, SITEID, SUBJID","version":"2.3","status":"ACTIVE","updated_at":"2026-03-27T00:00:00.000Z","updated_by":"CDISC CDASH Team","change_reason":"CDASHIG v2.3 release"},{"study_id":"GLOBAL","standard":"CDASH","code":"HO","name":"Healthcare Encounters","description":"Healthcare Encounters data collection domain in CDASHIG v2.3.","structure":"One record per observation","cls":"Events","purpose":"Data Collection","key_variables":"STUDYID, SITEID, SUBJID","version":"2.3","status":"ACTIVE","updated_at":"2026-03-27T00:00:00.000Z","updated_by":"CDISC CDASH Team","change_reason":"CDASHIG v2.3 release"},{"study_id":"GLOBAL","standard":"CDASH","code":"MH","name":"Medical History","description":"Medical History data collection domain in CDASHIG v2.3.","structure":"One record per observation","cls":"Events","purpose":"Data Collection","key_variables":"STUDYID, SITEID, SUBJID","version":"2.3","status":"ACTIVE","updated_at":"2026-03-27T00:00:00.000Z","updated_by":"CDISC CDASH Team","change_reason":"CDASHIG v2.3 release"},{"study_id":"GLOBAL","standard":"CDASH","code":"CP","name":"Cell Phenotyping","description":"Cell Phenotyping data collection domain in CDASHIG v2.3.","structure":"One record per observation","cls":"Findings","purpose":"Data Collection","key_variables":"STUDYID, SITEID, SUBJID","version":"2.3","status":"ACTIVE","updated_at":"2026-03-27T00:00:00.000Z","updated_by":"CDISC CDASH Team","change_reason":"CDASHIG v2.3 release"},{"study_id":"GLOBAL","standard":"CDASH","code":"CV","name":"Cardiovascular Findings","description":"Cardiovascular Findings data collection domain in CDASHIG v2.3.","structure":"One record per observation","cls":"Findings","purpose":"Data Collection","key_variables":"STUDYID, SITEID, SUBJID","version":"2.3","status":"ACTIVE","updated_at":"2026-03-27T00:00:00.000Z","updated_by":"CDISC CDASH Team","change_reason":"CDASHIG v2.3 release"},{"study_id":"GLOBAL","standard":"CDASH","code":"DA","name":"Drug Accountability","description":"Drug Accountability data collection domain in CDASHIG v2.3.","structure":"One record per observation","cls":"Findings","purpose":"Data Collection","key_variables":"STUDYID, SITEID, SUBJID","version":"2.3","status":"ACTIVE","updated_at":"2026-03-27T00:00:00.000Z","updated_by":"CDISC CDASH Team","change_reason":"CDASHIG v2.3 release"},{"study_id":"GLOBAL","standard":"CDASH","code":"DD","name":"Death Details","description":"Death Details data collection domain in CDASHIG v2.3.","structure":"One record per observation","cls":"Findings","purpose":"Data Collection","key_variables":"STUDYID, SITEID, SUBJID","version":"2.3","status":"ACTIVE","updated_at":"2026-03-27T00:00:00.000Z","updated_by":"CDISC CDASH Team","change_reason":"CDASHIG v2.3 release"},{"study_id":"GLOBAL","standard":"CDASH","code":"IE","name":"Inclusion/Exclusion Criteria","description":"Inclusion/Exclusion Criteria data collection domain in CDASHIG v2.3.","structure":"One record per observation","cls":"Findings","purpose":"Data Collection","key_variables":"STUDYID, SITEID, SUBJID","version":"2.3","status":"ACTIVE","updated_at":"2026-03-27T00:00:00.000Z","updated_by":"CDISC CDASH Team","change_reason":"CDASHIG v2.3 release"},{"study_id":"GLOBAL","standard":"CDASH","code":"MK","name":"Musculoskeletal Findings","description":"Musculoskeletal Findings data collection domain in CDASHIG v2.3.","structure":"One record per observation","cls":"Findings","purpose":"Data Collection","key_variables":"STUDYID, SITEID, SUBJID","version":"2.3","status":"ACTIVE","updated_at":"2026-03-27T00:00:00.000Z","updated_by":"CDISC CDASH Team","change_reason":"CDASHIG v2.3 release"},{"study_id":"GLOBAL","standard":"CDASH","code":"NV","name":"Nervous System Findings","description":"Nervous System Findings data collection domain in CDASHIG v2.3.","structure":"One record per observation","cls":"Findings","purpose":"Data Collection","key_variables":"STUDYID, SITEID, SUBJID","version":"2.3","status":"ACTIVE","updated_at":"2026-03-27T00:00:00.000Z","updated_by":"CDISC CDASH Team","change_reason":"CDASHIG v2.3 release"},{"study_id":"GLOBAL","standard":"CDASH","code":"OE","name":"Ophthalmic Examination Findings","description":"Ophthalmic Examination Findings data collection domain in CDASHIG v2.3.","structure":"One record per observation","cls":"Findings","purpose":"Data Collection","key_variables":"STUDYID, SITEID, SUBJID","version":"2.3","status":"ACTIVE","updated_at":"2026-03-27T00:00:00.000Z","updated_by":"CDISC CDASH Team","change_reason":"CDASHIG v2.3 release"},{"study_id":"GLOBAL","standard":"CDASH","code":"RE","name":"Respiratory Findings","description":"Respiratory Findings data collection domain in CDASHIG v2.3.","structure":"One record per observation","cls":"Findings","purpose":"Data Collection","key_variables":"STUDYID, SITEID, SUBJID","version":"2.3","status":"ACTIVE","updated_at":"2026-03-27T00:00:00.000Z","updated_by":"CDISC CDASH Team","change_reason":"CDASHIG v2.3 release"},{"study_id":"GLOBAL","standard":"CDASH","code":"RP","name":"Reproductive System Findings","description":"Reproductive System Findings data collection domain in CDASHIG v2.3.","structure":"One record per observation","cls":"Findings","purpose":"Data Collection","key_variables":"STUDYID, SITEID, SUBJID","version":"2.3","status":"ACTIVE","updated_at":"2026-03-27T00:00:00.000Z","updated_by":"CDISC CDASH Team","change_reason":"CDASHIG v2.3 release"},{"study_id":"GLOBAL","standard":"CDASH","code":"RS","name":"Disease Response","description":"Disease Response data collection domain in CDASHIG v2.3.","structure":"One record per observation","cls":"Findings","purpose":"Data Collection","key_variables":"STUDYID, SITEID, SUBJID","version":"2.3","status":"ACTIVE","updated_at":"2026-03-27T00:00:00.000Z","updated_by":"CDISC CDASH Team","change_reason":"CDASHIG v2.3 release"},{"study_id":"GLOBAL","standard":"CDASH","code":"SC","name":"Subject Characteristics","description":"Subject Characteristics data collection domain in CDASHIG v2.3.","structure":"One record per observation","cls":"Findings","purpose":"Data Collection","key_variables":"STUDYID, SITEID, SUBJID","version":"2.3","status":"ACTIVE","updated_at":"2026-03-27T00:00:00.000Z","updated_by":"CDISC CDASH Team","change_reason":"CDASHIG v2.3 release"},{"study_id":"GLOBAL","standard":"CDASH","code":"TR","name":"Tumor Response","description":"Tumor Response data collection domain in CDASHIG v2.3.","structure":"One record per observation","cls":"Findings","purpose":"Data Collection","key_variables":"STUDYID, SITEID, SUBJID","version":"2.3","status":"ACTIVE","updated_at":"2026-03-27T00:00:00.000Z","updated_by":"CDISC CDASH Team","change_reason":"CDASHIG v2.3 release"},{"study_id":"GLOBAL","standard":"CDASH","code":"TU","name":"Tumor Identification","description":"Tumor Identification data collection domain in CDASHIG v2.3.","structure":"One record per observation","cls":"Findings","purpose":"Data Collection","key_variables":"STUDYID, SITEID, SUBJID","version":"2.3","status":"ACTIVE","updated_at":"2026-03-27T00:00:00.000Z","updated_by":"CDISC CDASH Team","change_reason":"CDASHIG v2.3 release"},{"study_id":"GLOBAL","standard":"CDASH","code":"UR","name":"Urinary System Findings","description":"Urinary System Findings data collection domain in CDASHIG v2.3.","structure":"One record per observation","cls":"Findings","purpose":"Data Collection","key_variables":"STUDYID, SITEID, SUBJID","version":"2.3","status":"ACTIVE","updated_at":"2026-03-27T00:00:00.000Z","updated_by":"CDISC CDASH Team","change_reason":"CDASHIG v2.3 release"},{"study_id":"GLOBAL","standard":"CDASH","code":"VS","name":"Vital Signs","description":"Vital Signs data collection domain in CDASHIG v2.3.","structure":"One record per observation","cls":"Findings","purpose":"Data Collection","key_variables":"STUDYID, SITEID, SUBJID","version":"2.3","status":"ACTIVE","updated_at":"2026-03-27T00:00:00.000Z","updated_by":"CDISC CDASH Team","change_reason":"CDASHIG v2.3 release"},{"study_id":"GLOBAL","standard":"CDASH","code":"FA","name":"Findings About","description":"Findings About data collection domain in CDASHIG v2.3.","structure":"One record per observation","cls":"Findings About","purpose":"Data Collection","key_variables":"STUDYID, SITEID, SUBJID","version":"2.3","status":"ACTIVE","updated_at":"2026-03-27T00:00:00.000Z","updated_by":"CDISC CDASH Team","change_reason":"CDASHIG v2.3 release"},{"study_id":"GLOBAL","standard":"CDASH","code":"SR","name":"Skin Response","description":"Skin Response data collection domain in CDASHIG v2.3.","structure":"One record per observation","cls":"Findings About","purpose":"Data Collection","key_variables":"STUDYID, SITEID, SUBJID","version":"2.3","status":"ACTIVE","updated_at":"2026-03-27T00:00:00.000Z","updated_by":"CDISC CDASH Team","change_reason":"CDASHIG v2.3 release"},{"study_id":"GLOBAL","standard":"CDASH","code":"CO","name":"Comments","description":"Comments data collection domain in CDASHIG v2.3.","structure":"One record per observation","cls":"Special-Purpose","purpose":"Data Collection","key_variables":"STUDYID, SITEID, SUBJID","version":"2.3","status":"ACTIVE","updated_at":"2026-03-27T00:00:00.000Z","updated_by":"CDISC CDASH Team","change_reason":"CDASHIG v2.3 release"},{"study_id":"GLOBAL","standard":"CDASH","code":"DS","name":"Disposition","description":"Disposition data collection domain in CDASHIG v2.3.","structure":"One record per observation","cls":"Events","purpose":"Data Collection","key_variables":"STUDYID, SITEID, SUBJID","version":"2.3","status":"ACTIVE","updated_at":"2026-03-27T00:00:00.000Z","updated_by":"CDISC CDASH Team","change_reason":"CDASHIG v2.3 release"},{"study_id":"GLOBAL","standard":"CDASH","code":"SA","name":"Serious Adverse Events","description":"Serious Adverse Events data collection domain in CDASHIG v2.3.","structure":"One record per observation","cls":"Events","purpose":"Data Collection","key_variables":"STUDYID, SITEID, SUBJID","version":"2.3","status":"ACTIVE","updated_at":"2026-03-27T00:00:00.000Z","updated_by":"CDISC CDASH Team","change_reason":"CDASHIG v2.3 release"},{"study_id":"GLOBAL","standard":"CDASH","code":"EG","name":"Electrocardiogram","description":"Electrocardiogram data collection domain in CDASHIG v2.3.","structure":"One record per observation","cls":"Findings","purpose":"Data Collection","key_variables":"STUDYID, SITEID, SUBJID","version":"2.3","status":"ACTIVE","updated_at":"2026-03-27T00:00:00.000Z","updated_by":"CDISC CDASH Team","change_reason":"CDASHIG v2.3 release"},{"study_id":"GLOBAL","standard":"CDASH","code":"GF","name":"Genetic Findings","description":"Genetic Findings data collection domain in CDASHIG v2.3.","structure":"One record per observation","cls":"Findings","purpose":"Data Collection","key_variables":"STUDYID, SITEID, SUBJID","version":"2.3","status":"ACTIVE","updated_at":"2026-03-27T00:00:00.000Z","updated_by":"CDISC CDASH Team","change_reason":"CDASHIG v2.3 release"},{"study_id":"GLOBAL","standard":"CDASH","code":"LB","name":"Laboratory Test Results","description":"Laboratory Test Results data collection domain in CDASHIG v2.3.","structure":"One record per observation","cls":"Findings","purpose":"Data Collection","key_variables":"STUDYID, SITEID, SUBJID","version":"2.3","status":"ACTIVE","updated_at":"2026-03-27T00:00:00.000Z","updated_by":"CDISC CDASH Team","change_reason":"CDASHIG v2.3 release"},{"study_id":"GLOBAL","standard":"CDASH","code":"MB","name":"Microbiology Specimen","description":"Microbiology Specimen data collection domain in CDASHIG v2.3.","structure":"One record per observation","cls":"Findings","purpose":"Data Collection","key_variables":"STUDYID, SITEID, SUBJID","version":"2.3","status":"ACTIVE","updated_at":"2026-03-27T00:00:00.000Z","updated_by":"CDISC CDASH Team","change_reason":"CDASHIG v2.3 release"},{"study_id":"GLOBAL","standard":"CDASH","code":"MI","name":"Microscopic Findings","description":"Microscopic Findings data collection domain in CDASHIG v2.3.","structure":"One record per observation","cls":"Findings","purpose":"Data Collection","key_variables":"STUDYID, SITEID, SUBJID","version":"2.3","status":"ACTIVE","updated_at":"2026-03-27T00:00:00.000Z","updated_by":"CDISC CDASH Team","change_reason":"CDASHIG v2.3 release"},{"study_id":"GLOBAL","standard":"CDASH","code":"MS","name":"Microbiology Susceptibility","description":"Microbiology Susceptibility data collection domain in CDASHIG v2.3.","structure":"One record per observation","cls":"Findings","purpose":"Data Collection","key_variables":"STUDYID, SITEID, SUBJID","version":"2.3","status":"ACTIVE","updated_at":"2026-03-27T00:00:00.000Z","updated_by":"CDISC CDASH Team","change_reason":"CDASHIG v2.3 release"},{"study_id":"GLOBAL","standard":"CDASH","code":"PC","name":"Pharmacokinetics Concentrations","description":"Pharmacokinetics Concentrations data collection domain in CDASHIG v2.3.","structure":"One record per observation","cls":"Findings","purpose":"Data Collection","key_variables":"STUDYID, SITEID, SUBJID","version":"2.3","status":"ACTIVE","updated_at":"2026-03-27T00:00:00.000Z","updated_by":"CDISC CDASH Team","change_reason":"CDASHIG v2.3 release"},{"study_id":"GLOBAL","standard":"CDASH","code":"PE","name":"Physical Examination","description":"Physical Examination data collection domain in CDASHIG v2.3.","structure":"One record per observation","cls":"Findings","purpose":"Data Collection","key_variables":"STUDYID, SITEID, SUBJID","version":"2.3","status":"ACTIVE","updated_at":"2026-03-27T00:00:00.000Z","updated_by":"CDISC CDASH Team","change_reason":"CDASHIG v2.3 release"},{"study_id":"GLOBAL","standard":"CDASH","code":"DM","name":"Demographics","description":"Demographics data collection domain in CDASHIG v2.3.","structure":"One record per observation","cls":"Special-Purpose","purpose":"Data Collection","key_variables":"STUDYID, SITEID, SUBJID","version":"2.3","status":"ACTIVE","updated_at":"2026-03-27T00:00:00.000Z","updated_by":"CDISC CDASH Team","change_reason":"CDASHIG v2.3 release"},{"study_id":"GLOBAL","standard":"SDTM","code":"TA","name":"Trial Arms","description":"Trial Arms domain per CDISC specification.","structure":"One record per planned Element per Arm","cls":"TRIAL DESIGN","purpose":"Tabulation","key_variables":"STUDYID, DOMAIN, ARMCD, TAETORD","version":"1.0","status":"ACTIVE","updated_at":"2026-03-27T00:00:00.000Z","updated_by":"CDISC Standards Lead","change_reason":"Imported from SDTM IG"},{"study_id":"GLOBAL","standard":"SDTM","code":"TD","name":"Trial Disease Assessments","description":"Trial Disease Assessments domain per CDISC specification.","structure":"One record per planned constant assessment period","cls":"TRIAL DESIGN","purpose":"Tabulation","key_variables":"STUDYID, DOMAIN, TDORDER","version":"1.0","status":"ACTIVE","updated_at":"2026-03-27T00:00:00.000Z","updated_by":"CDISC Standards Lead","change_reason":"Imported from SDTM IG"},{"study_id":"GLOBAL","standard":"SDTM","code":"TE","name":"Trial Elements","description":"Trial Elements domain per CDISC specification.","structure":"One record per planned Element","cls":"TRIAL DESIGN","purpose":"Tabulation","key_variables":"STUDYID, DOMAIN, ETCD","version":"1.0","status":"ACTIVE","updated_at":"2026-03-27T00:00:00.000Z","updated_by":"CDISC Standards Lead","change_reason":"Imported from SDTM IG"},{"study_id":"GLOBAL","standard":"SDTM","code":"TI","name":"Trial Inclusion/Exclusion Criteria","description":"Trial Inclusion/Exclusion Criteria domain per CDISC specification.","structure":"One record per I/E criterion","cls":"TRIAL DESIGN","purpose":"Tabulation","key_variables":"STUDYID, DOMAIN, IETESTCD, TIVERS","version":"1.0","status":"ACTIVE","updated_at":"2026-03-27T00:00:00.000Z","updated_by":"CDISC Standards Lead","change_reason":"Imported from SDTM IG"},{"study_id":"GLOBAL","standard":"SDTM","code":"TM","name":"Trial Disease Milestones","description":"Trial Disease Milestones domain per CDISC specification.","structure":"One record per Disease Milestone type","cls":"TRIAL DESIGN","purpose":"Tabulation","key_variables":"STUDYID, DOMAIN, MIDSTYPE","version":"1.0","status":"ACTIVE","updated_at":"2026-03-27T00:00:00.000Z","updated_by":"CDISC Standards Lead","change_reason":"Imported from SDTM IG"},{"study_id":"GLOBAL","standard":"SDTM","code":"TS","name":"Trial Summary","description":"Trial Summary domain per CDISC specification.","structure":"One record per trial summary parameter value","cls":"TRIAL DESIGN","purpose":"Tabulation","key_variables":"STUDYID, DOMAIN, TSSEQ, TSGRPID, TSPARMCD","version":"1.0","status":"ACTIVE","updated_at":"2026-03-27T00:00:00.000Z","updated_by":"CDISC Standards Lead","change_reason":"Imported from SDTM IG"},{"study_id":"GLOBAL","standard":"SDTM","code":"TV","name":"Trial Visits","description":"Trial Visits domain per CDISC specification.","structure":"One record per planned Visit per Arm","cls":"TRIAL DESIGN","purpose":"Tabulation","key_variables":"STUDYID, DOMAIN, VISITNUM, ARMCD","version":"1.0","status":"ACTIVE","updated_at":"2026-03-27T00:00:00.000Z","updated_by":"CDISC Standards Lead","change_reason":"Imported from SDTM IG"},{"study_id":"GLOBAL","standard":"SDTM","code":"APCO","name":"Associated Persons for CO","description":"Associated Persons for CO domain per CDISC specification.","structure":"One record per comment per associated person","cls":"SPECIAL PURPOSE","purpose":"Tabulation","key_variables":"STUDYID, DOMAIN, RDOMAIN, USUBJID, APID, POOLID","version":"1.0","status":"ACTIVE","updated_at":"2026-03-27T00:00:00.000Z","updated_by":"CDISC Standards Lead","change_reason":"Imported from SDTM IG"},{"study_id":"GLOBAL","standard":"SDTM","code":"APDM","name":"Associated Persons Demographics","description":"Associated Persons Demographics domain per CDISC specification.","structure":"One record per associated person","cls":"SPECIAL PURPOSE","purpose":"Tabulation","key_variables":"STUDYID, DOMAIN, USUBJID, APID, RSUBJID, RDEVID","version":"1.0","status":"ACTIVE","updated_at":"2026-03-27T00:00:00.000Z","updated_by":"CDISC Standards Lead","change_reason":"Imported from SDTM IG"},{"study_id":"GLOBAL","standard":"SDTM","code":"CO","name":"Comments","description":"Comments domain per CDISC specification.","structure":"One record per comment per subject","cls":"SPECIAL PURPOSE","purpose":"Tabulation","key_variables":"STUDYID, DOMAIN, RDOMAIN, USUBJID, POOLID, SPDEVID","version":"1.0","status":"ACTIVE","updated_at":"2026-03-27T00:00:00.000Z","updated_by":"CDISC Standards Lead","change_reason":"Imported from SDTM IG"},{"study_id":"GLOBAL","standard":"SDTM","code":"DM","name":"Demographics","description":"Demographics domain per CDISC specification.","structure":"One record per subject","cls":"SPECIAL PURPOSE","purpose":"Tabulation","key_variables":"STUDYID, DOMAIN, USUBJID","version":"1.0","status":"ACTIVE","updated_at":"2026-03-27T00:00:00.000Z","updated_by":"CDISC Standards Lead","change_reason":"Imported from SDTM IG"},{"study_id":"GLOBAL","standard":"SDTM","code":"SE","name":"Subject Elements","description":"Subject Elements domain per CDISC specification.","structure":"One record per actual Element per subject","cls":"SPECIAL PURPOSE","purpose":"Tabulation","key_variables":"STUDYID, DOMAIN, USUBJID, SESEQ, SEGRPID, SEREFID","version":"1.0","status":"ACTIVE","updated_at":"2026-03-27T00:00:00.000Z","updated_by":"CDISC Standards Lead","change_reason":"Imported from SDTM IG"},{"study_id":"GLOBAL","standard":"SDTM","code":"SM","name":"Subject Disease Milestones","description":"Subject Disease Milestones domain per CDISC specification.","structure":"One record per Disease Milestone per subject","cls":"SPECIAL PURPOSE","purpose":"Tabulation","key_variables":"STUDYID, DOMAIN, USUBJID, SMSEQ, SMGRPID, SMREFID","version":"1.0","status":"ACTIVE","updated_at":"2026-03-27T00:00:00.000Z","updated_by":"CDISC Standards Lead","change_reason":"Imported from SDTM IG"},{"study_id":"GLOBAL","standard":"SDTM","code":"SV","name":"Subject Visits","description":"Subject Visits domain per CDISC specification.","structure":"One record per actual or planned visit per subject","cls":"SPECIAL PURPOSE","purpose":"Tabulation","key_variables":"STUDYID, DOMAIN, USUBJID, POOLID, SVSEQ, SVGRPID","version":"1.0","status":"ACTIVE","updated_at":"2026-03-27T00:00:00.000Z","updated_by":"CDISC Standards Lead","change_reason":"Imported from SDTM IG"},{"study_id":"GLOBAL","standard":"SDTM","code":"AP INTERVENTIONS","name":"Associated Persons Interventions","description":"Associated Persons Interventions domain per CDISC specification.","structure":"One record per constant-dosing interval or intervention episode per subject","cls":"INTERVENTIONS","purpose":"Tabulation","key_variables":"STUDYID, DOMAIN, USUBJID, APID, POOLID, SPDEVID","version":"1.0","status":"ACTIVE","updated_at":"2026-03-27T00:00:00.000Z","updated_by":"CDISC Standards Lead","change_reason":"Imported from SDTM IG"},{"study_id":"GLOBAL","standard":"SDTM","code":"INTERVENTIONS","name":"Interventions","description":"Interventions domain per CDISC specification.","structure":"One record per constant-dosing interval or intervention episode per subject","cls":"INTERVENTIONS","purpose":"Tabulation","key_variables":"STUDYID, DOMAIN, USUBJID, POOLID, SPDEVID, NHOID","version":"1.0","status":"ACTIVE","updated_at":"2026-03-27T00:00:00.000Z","updated_by":"CDISC Standards Lead","change_reason":"Imported from SDTM IG"},{"study_id":"GLOBAL","standard":"SDTM","code":"AG","name":"Procedure Agents","description":"Procedure Agents domain per CDISC specification.","structure":"One record per recorded intervention occurrence per subject","cls":"INTERVENTIONS","purpose":"Tabulation","key_variables":"STUDYID, DOMAIN, USUBJID, POOLID, SPDEVID, NHOID","version":"1.0","status":"ACTIVE","updated_at":"2026-03-27T00:00:00.000Z","updated_by":"CDISC Standards Lead","change_reason":"Imported from SDTM IG"},{"study_id":"GLOBAL","standard":"SDTM","code":"APAG","name":"Associated Persons for AG","description":"Associated Persons for AG domain per CDISC specification.","structure":"One record per recorded intervention occurrence per associated person","cls":"INTERVENTIONS","purpose":"Tabulation","key_variables":"STUDYID, DOMAIN, USUBJID, APID, POOLID, SPDEVID","version":"1.0","status":"ACTIVE","updated_at":"2026-03-27T00:00:00.000Z","updated_by":"CDISC Standards Lead","change_reason":"Imported from SDTM IG"},{"study_id":"GLOBAL","standard":"SDTM","code":"APCM","name":"Associated Persons for CM","description":"Associated Persons for CM domain per CDISC specification.","structure":"One record per recorded intervention occurrence or constant-dosing interval per associated person","cls":"INTERVENTIONS","purpose":"Tabulation","key_variables":"STUDYID, DOMAIN, USUBJID, APID, POOLID, SPDEVID","version":"1.0","status":"ACTIVE","updated_at":"2026-03-27T00:00:00.000Z","updated_by":"CDISC Standards Lead","change_reason":"Imported from SDTM IG"},{"study_id":"GLOBAL","standard":"SDTM","code":"APEC","name":"Associated Persons for EC","description":"Associated Persons for EC domain per CDISC specification.","structure":"One record per protocol-specified study treatment, collected-dosing interval, per associated person, per mood","cls":"INTERVENTIONS","purpose":"Tabulation","key_variables":"STUDYID, DOMAIN, USUBJID, APID, POOLID, SPDEVID","version":"1.0","status":"ACTIVE","updated_at":"2026-03-27T00:00:00.000Z","updated_by":"CDISC Standards Lead","change_reason":"Imported from SDTM IG"},{"study_id":"GLOBAL","standard":"SDTM","code":"APEX","name":"Associated Persons for EX","description":"Associated Persons for EX domain per CDISC specification.","structure":"One record per protocol-specified study treatment, constant-dosing interval, per associated person","cls":"INTERVENTIONS","purpose":"Tabulation","key_variables":"STUDYID, DOMAIN, USUBJID, APID, POOLID, SPDEVID","version":"1.0","status":"ACTIVE","updated_at":"2026-03-27T00:00:00.000Z","updated_by":"CDISC Standards Lead","change_reason":"Imported from SDTM IG"},{"study_id":"GLOBAL","standard":"SDTM","code":"APML","name":"Associated Persons for ML","description":"Associated Persons for ML domain per CDISC specification.","structure":"One record per food product occurrence or constant intake interval per associated person","cls":"INTERVENTIONS","purpose":"Tabulation","key_variables":"STUDYID, DOMAIN, USUBJID, APID, POOLID, SPDEVID","version":"1.0","status":"ACTIVE","updated_at":"2026-03-27T00:00:00.000Z","updated_by":"CDISC Standards Lead","change_reason":"Imported from SDTM IG"},{"study_id":"GLOBAL","standard":"SDTM","code":"APPR","name":"Associated Persons for PR","description":"Associated Persons for PR domain per CDISC specification.","structure":"One record per recorded procedure per occurrence per associated person","cls":"INTERVENTIONS","purpose":"Tabulation","key_variables":"STUDYID, DOMAIN, USUBJID, APID, POOLID, SPDEVID","version":"1.0","status":"ACTIVE","updated_at":"2026-03-27T00:00:00.000Z","updated_by":"CDISC Standards Lead","change_reason":"Imported from SDTM IG"},{"study_id":"GLOBAL","standard":"SDTM","code":"APSU","name":"Associated Persons for SU","description":"Associated Persons for SU domain per CDISC specification.","structure":"One record per substance type per reported occurrence per associated person","cls":"INTERVENTIONS","purpose":"Tabulation","key_variables":"STUDYID, DOMAIN, USUBJID, APID, POOLID, SPDEVID","version":"1.0","status":"ACTIVE","updated_at":"2026-03-27T00:00:00.000Z","updated_by":"CDISC Standards Lead","change_reason":"Imported from SDTM IG"},{"study_id":"GLOBAL","standard":"SDTM","code":"CM","name":"Concomitant/Prior Medications","description":"Concomitant/Prior Medications domain per CDISC specification.","structure":"One record per recorded intervention occurrence or constant-dosing interval per subject","cls":"INTERVENTIONS","purpose":"Tabulation","key_variables":"STUDYID, DOMAIN, USUBJID, POOLID, SPDEVID, NHOID","version":"1.0","status":"ACTIVE","updated_at":"2026-03-27T00:00:00.000Z","updated_by":"CDISC Standards Lead","change_reason":"Imported from SDTM IG"},{"study_id":"GLOBAL","standard":"SDTM","code":"DX","name":"Device Exposure","description":"Device Exposure domain per CDISC specification.","structure":"One record per recorded intervention occurrence or constant treatment interval per subject","cls":"INTERVENTIONS","purpose":"Tabulation","key_variables":"STUDYID, DOMAIN, USUBJID, POOLID, SPDEVID, NHOID","version":"1.0","status":"ACTIVE","updated_at":"2026-03-27T00:00:00.000Z","updated_by":"CDISC Standards Lead","change_reason":"Imported from SDTM IG"},{"study_id":"GLOBAL","standard":"SDTM","code":"EC","name":"Exposure as Collected","description":"Exposure as Collected domain per CDISC specification.","structure":"One record per protocol-specified study treatment, collected-dosing interval, per subject, per mood","cls":"INTERVENTIONS","purpose":"Tabulation","key_variables":"STUDYID, DOMAIN, USUBJID, POOLID, SPDEVID, NHOID","version":"1.0","status":"ACTIVE","updated_at":"2026-03-27T00:00:00.000Z","updated_by":"CDISC Standards Lead","change_reason":"Imported from SDTM IG"},{"study_id":"GLOBAL","standard":"SDTM","code":"EX","name":"Exposure","description":"Exposure domain per CDISC specification.","structure":"One record per protocol-specified study treatment, constant-dosing interval, per subject","cls":"INTERVENTIONS","purpose":"Tabulation","key_variables":"STUDYID, DOMAIN, USUBJID, POOLID, SPDEVID, NHOID","version":"1.0","status":"ACTIVE","updated_at":"2026-03-27T00:00:00.000Z","updated_by":"CDISC Standards Lead","change_reason":"Imported from SDTM IG"},{"study_id":"GLOBAL","standard":"SDTM","code":"ML","name":"Meal Data","description":"Meal Data domain per CDISC specification.","structure":"One record per food product occurrence or constant intake interval per subject","cls":"INTERVENTIONS","purpose":"Tabulation","key_variables":"STUDYID, DOMAIN, USUBJID, POOLID, SPDEVID, NHOID","version":"1.0","status":"ACTIVE","updated_at":"2026-03-27T00:00:00.000Z","updated_by":"CDISC Standards Lead","change_reason":"Imported from SDTM IG"},{"study_id":"GLOBAL","standard":"SDTM","code":"PR","name":"Procedures","description":"Procedures domain per CDISC specification.","structure":"One record per recorded procedure per occurrence per subject","cls":"INTERVENTIONS","purpose":"Tabulation","key_variables":"STUDYID, DOMAIN, USUBJID, POOLID, SPDEVID, NHOID","version":"1.0","status":"ACTIVE","updated_at":"2026-03-27T00:00:00.000Z","updated_by":"CDISC Standards Lead","change_reason":"Imported from SDTM IG"},{"study_id":"GLOBAL","standard":"SDTM","code":"SU","name":"Substance Use","description":"Substance Use domain per CDISC specification.","structure":"One record per substance type per reported occurrence per subject","cls":"INTERVENTIONS","purpose":"Tabulation","key_variables":"STUDYID, DOMAIN, USUBJID, POOLID, SPDEVID, NHOID","version":"1.0","status":"ACTIVE","updated_at":"2026-03-27T00:00:00.000Z","updated_by":"CDISC Standards Lead","change_reason":"Imported from SDTM IG"},{"study_id":"GLOBAL","standard":"SDTM","code":"AP EVENTS","name":"Associated Persons Events","description":"Associated Persons Events domain per CDISC specification.","structure":"One record per event per subject","cls":"EVENTS","purpose":"Tabulation","key_variables":"STUDYID, DOMAIN, USUBJID, APID, POOLID, SPDEVID","version":"1.0","status":"ACTIVE","updated_at":"2026-03-27T00:00:00.000Z","updated_by":"CDISC Standards Lead","change_reason":"Imported from SDTM IG"},{"study_id":"GLOBAL","standard":"SDTM","code":"EVENTS","name":"Events","description":"Events domain per CDISC specification.","structure":"One record per event per subject","cls":"EVENTS","purpose":"Tabulation","key_variables":"STUDYID, DOMAIN, USUBJID, POOLID, SPDEVID, NHOID","version":"1.0","status":"ACTIVE","updated_at":"2026-03-27T00:00:00.000Z","updated_by":"CDISC Standards Lead","change_reason":"Imported from SDTM IG"},{"study_id":"GLOBAL","standard":"SDTM","code":"AE","name":"Adverse Events","description":"Adverse Events domain per CDISC specification.","structure":"One record per adverse event per subject","cls":"EVENTS","purpose":"Tabulation","key_variables":"STUDYID, DOMAIN, USUBJID, POOLID, SPDEVID, NHOID","version":"1.0","status":"ACTIVE","updated_at":"2026-03-27T00:00:00.000Z","updated_by":"CDISC Standards Lead","change_reason":"Imported from SDTM IG"},{"study_id":"GLOBAL","standard":"SDTM","code":"APAE","name":"Associated Persons for AE","description":"Associated Persons for AE domain per CDISC specification.","structure":"One record per adverse event per associated person","cls":"EVENTS","purpose":"Tabulation","key_variables":"STUDYID, DOMAIN, USUBJID, APID, POOLID, SPDEVID","version":"1.0","status":"ACTIVE","updated_at":"2026-03-27T00:00:00.000Z","updated_by":"CDISC Standards Lead","change_reason":"Imported from SDTM IG"},{"study_id":"GLOBAL","standard":"SDTM","code":"APBE","name":"Associated Persons for BS","description":"Associated Persons for BS domain per CDISC specification.","structure":"One record per instance per biospecimen event per biospecimen identifier per associated person","cls":"EVENTS","purpose":"Tabulation","key_variables":"STUDYID, DOMAIN, USUBJID, APID, POOLID, SPDEVID","version":"1.0","status":"ACTIVE","updated_at":"2026-03-27T00:00:00.000Z","updated_by":"CDISC Standards Lead","change_reason":"Imported from SDTM IG"},{"study_id":"GLOBAL","standard":"SDTM","code":"APCE","name":"Associated Persons for CE","description":"Associated Persons for CE domain per CDISC specification.","structure":"One record per event per associated person","cls":"EVENTS","purpose":"Tabulation","key_variables":"STUDYID, DOMAIN, USUBJID, APID, POOLID, SPDEVID","version":"1.0","status":"ACTIVE","updated_at":"2026-03-27T00:00:00.000Z","updated_by":"CDISC Standards Lead","change_reason":"Imported from SDTM IG"},{"study_id":"GLOBAL","standard":"SDTM","code":"APDS","name":"Associated Persons for DS","description":"Associated Persons for DS domain per CDISC specification.","structure":"One record per disposition status or protocol milestone per associated person","cls":"EVENTS","purpose":"Tabulation","key_variables":"STUDYID, DOMAIN, USUBJID, APID, POOLID, SPDEVID","version":"1.0","status":"ACTIVE","updated_at":"2026-03-27T00:00:00.000Z","updated_by":"CDISC Standards Lead","change_reason":"Imported from SDTM IG"},{"study_id":"GLOBAL","standard":"SDTM","code":"APDV","name":"Associated Persons for DV","description":"Associated Persons for DV domain per CDISC specification.","structure":"One record per protocol deviation per associated person","cls":"EVENTS","purpose":"Tabulation","key_variables":"STUDYID, DOMAIN, USUBJID, APID, POOLID, SPDEVID","version":"1.0","status":"ACTIVE","updated_at":"2026-03-27T00:00:00.000Z","updated_by":"CDISC Standards Lead","change_reason":"Imported from SDTM IG"},{"study_id":"GLOBAL","standard":"SDTM","code":"APHO","name":"Associated Persons for HO","description":"Associated Persons for HO domain per CDISC specification.","structure":"One record per healthcare encounter per associated person","cls":"EVENTS","purpose":"Tabulation","key_variables":"STUDYID, DOMAIN, USUBJID, APID, POOLID, SPDEVID","version":"1.0","status":"ACTIVE","updated_at":"2026-03-27T00:00:00.000Z","updated_by":"CDISC Standards Lead","change_reason":"Imported from SDTM IG"},{"study_id":"GLOBAL","standard":"SDTM","code":"APMH","name":"Associated Persons for MH","description":"Associated Persons for MH domain per CDISC specification.","structure":"One record per medical history event per associated person","cls":"EVENTS","purpose":"Tabulation","key_variables":"STUDYID, DOMAIN, USUBJID, APID, POOLID, SPDEVID","version":"1.0","status":"ACTIVE","updated_at":"2026-03-27T00:00:00.000Z","updated_by":"CDISC Standards Lead","change_reason":"Imported from SDTM IG"},{"study_id":"GLOBAL","standard":"SDTM","code":"BE","name":"Biospecimen Events","description":"Biospecimen Events domain per CDISC specification.","structure":"One record per instance per biospecimen event per biospecimen identifier per subject","cls":"EVENTS","purpose":"Tabulation","key_variables":"STUDYID, DOMAIN, USUBJID, POOLID, SPDEVID, NHOID","version":"1.0","status":"ACTIVE","updated_at":"2026-03-27T00:00:00.000Z","updated_by":"CDISC Standards Lead","change_reason":"Imported from SDTM IG"},{"study_id":"GLOBAL","standard":"SDTM","code":"CE","name":"Clinical Events","description":"Clinical Events domain per CDISC specification.","structure":"One record per event per subject","cls":"EVENTS","purpose":"Tabulation","key_variables":"STUDYID, DOMAIN, USUBJID, POOLID, SPDEVID, NHOID","version":"1.0","status":"ACTIVE","updated_at":"2026-03-27T00:00:00.000Z","updated_by":"CDISC Standards Lead","change_reason":"Imported from SDTM IG"},{"study_id":"GLOBAL","standard":"SDTM","code":"DE","name":"Device Events","description":"Device Events domain per CDISC specification.","structure":"One record per event per device","cls":"EVENTS","purpose":"Tabulation","key_variables":"STUDYID, DOMAIN, USUBJID, POOLID, SPDEVID, NHOID","version":"1.0","status":"ACTIVE","updated_at":"2026-03-27T00:00:00.000Z","updated_by":"CDISC Standards Lead","change_reason":"Imported from SDTM IG"},{"study_id":"GLOBAL","standard":"SDTM","code":"DS","name":"Disposition","description":"Disposition domain per CDISC specification.","structure":"One record per disposition status or protocol milestone per subject","cls":"EVENTS","purpose":"Tabulation","key_variables":"STUDYID, DOMAIN, USUBJID, POOLID, SPDEVID, NHOID","version":"1.0","status":"ACTIVE","updated_at":"2026-03-27T00:00:00.000Z","updated_by":"CDISC Standards Lead","change_reason":"Imported from SDTM IG"},{"study_id":"GLOBAL","standard":"SDTM","code":"DT","name":"Device Tracking and Disposition","description":"Device Tracking and Disposition domain per CDISC specification.","structure":"One record per device tracking event","cls":"EVENTS","purpose":"Tabulation","key_variables":"STUDYID, DOMAIN, USUBJID, POOLID, SPDEVID, NHOID","version":"1.0","status":"ACTIVE","updated_at":"2026-03-27T00:00:00.000Z","updated_by":"CDISC Standards Lead","change_reason":"Imported from SDTM IG"},{"study_id":"GLOBAL","standard":"SDTM","code":"DV","name":"Protocol Deviations","description":"Protocol Deviations domain per CDISC specification.","structure":"One record per protocol deviation per subject","cls":"EVENTS","purpose":"Tabulation","key_variables":"STUDYID, DOMAIN, USUBJID, POOLID, SPDEVID, NHOID","version":"1.0","status":"ACTIVE","updated_at":"2026-03-27T00:00:00.000Z","updated_by":"CDISC Standards Lead","change_reason":"Imported from SDTM IG"},{"study_id":"GLOBAL","standard":"SDTM","code":"HO","name":"Healthcare Encounters","description":"Healthcare Encounters domain per CDISC specification.","structure":"One record per healthcare encounter per subject","cls":"EVENTS","purpose":"Tabulation","key_variables":"STUDYID, DOMAIN, USUBJID, POOLID, SPDEVID, NHOID","version":"1.0","status":"ACTIVE","updated_at":"2026-03-27T00:00:00.000Z","updated_by":"CDISC Standards Lead","change_reason":"Imported from SDTM IG"},{"study_id":"GLOBAL","standard":"SDTM","code":"MH","name":"Medical History","description":"Medical History domain per CDISC specification.","structure":"One record per medical history event per subject","cls":"EVENTS","purpose":"Tabulation","key_variables":"STUDYID, DOMAIN, USUBJID, POOLID, SPDEVID, NHOID","version":"1.0","status":"ACTIVE","updated_at":"2026-03-27T00:00:00.000Z","updated_by":"CDISC Standards Lead","change_reason":"Imported from SDTM IG"},{"study_id":"GLOBAL","standard":"SDTM","code":"AP FINDINGS","name":"Associated Persons Findings","description":"Associated Persons Findings domain per CDISC specification.","structure":"One record per finding per subject","cls":"FINDINGS","purpose":"Tabulation","key_variables":"STUDYID, DOMAIN, USUBJID, APID, POOLID, SPDEVID","version":"1.0","status":"ACTIVE","updated_at":"2026-03-27T00:00:00.000Z","updated_by":"CDISC Standards Lead","change_reason":"Imported from SDTM IG"},{"study_id":"GLOBAL","standard":"SDTM","code":"FINDINGS","name":"Findings","description":"Findings domain per CDISC specification.","structure":"One record per finding per subject","cls":"FINDINGS","purpose":"Tabulation","key_variables":"STUDYID, DOMAIN, USUBJID, POOLID, SPDEVID, NHOID","version":"1.0","status":"ACTIVE","updated_at":"2026-03-27T00:00:00.000Z","updated_by":"CDISC Standards Lead","change_reason":"Imported from SDTM IG"},{"study_id":"GLOBAL","standard":"SDTM","code":"APBS","name":"Associated Persons for BS","description":"Associated Persons for BS domain per CDISC specification.","structure":"One record per measurement per biospecimen identifier per associated person","cls":"FINDINGS","purpose":"Tabulation","key_variables":"STUDYID, DOMAIN, USUBJID, APID, POOLID, SPDEVID","version":"1.0","status":"ACTIVE","updated_at":"2026-03-27T00:00:00.000Z","updated_by":"CDISC Standards Lead","change_reason":"Imported from SDTM IG"},{"study_id":"GLOBAL","standard":"SDTM","code":"APCP","name":"Associated Persons for CP","description":"Associated Persons for CP domain per CDISC specification.","structure":"One record per test per specimen per timepoint per visit per associated person","cls":"FINDINGS","purpose":"Tabulation","key_variables":"STUDYID, DOMAIN, USUBJID, APID, POOLID, SPDEVID","version":"1.0","status":"ACTIVE","updated_at":"2026-03-27T00:00:00.000Z","updated_by":"CDISC Standards Lead","change_reason":"Imported from SDTM IG"},{"study_id":"GLOBAL","standard":"SDTM","code":"APCV","name":"Associated Persons for CV","description":"Associated Persons for CV domain per CDISC specification.","structure":"One record per finding or result per time point per visit per associated person","cls":"FINDINGS","purpose":"Tabulation","key_variables":"STUDYID, DOMAIN, USUBJID, APID, POOLID, SPDEVID","version":"1.0","status":"ACTIVE","updated_at":"2026-03-27T00:00:00.000Z","updated_by":"CDISC Standards Lead","change_reason":"Imported from SDTM IG"},{"study_id":"GLOBAL","standard":"SDTM","code":"APDA","name":"Associated Persons for DA","description":"Associated Persons for DA domain per CDISC specification.","structure":"One record per product accountability finding per associated person","cls":"FINDINGS","purpose":"Tabulation","key_variables":"STUDYID, DOMAIN, USUBJID, APID, POOLID, SPDEVID","version":"1.0","status":"ACTIVE","updated_at":"2026-03-27T00:00:00.000Z","updated_by":"CDISC Standards Lead","change_reason":"Imported from SDTM IG"},{"study_id":"GLOBAL","standard":"SDTM","code":"APDD","name":"Associated Persons for DD","description":"Associated Persons for DD domain per CDISC specification.","structure":"One record per finding per associated person","cls":"FINDINGS","purpose":"Tabulation","key_variables":"STUDYID, DOMAIN, USUBJID, APID, POOLID, SPDEVID","version":"1.0","status":"ACTIVE","updated_at":"2026-03-27T00:00:00.000Z","updated_by":"CDISC Standards Lead","change_reason":"Imported from SDTM IG"},{"study_id":"GLOBAL","standard":"SDTM","code":"APEG","name":"Associated Persons for EG","description":"Associated Persons for EG domain per CDISC specification.","structure":"One record per ECG observation per replicate per time point or one record per ECG observation per beat per visit per associated person","cls":"FINDINGS","purpose":"Tabulation","key_variables":"STUDYID, DOMAIN, USUBJID, APID, POOLID, SPDEVID","version":"1.0","status":"ACTIVE","updated_at":"2026-03-27T00:00:00.000Z","updated_by":"CDISC Standards Lead","change_reason":"Imported from SDTM IG"},{"study_id":"GLOBAL","standard":"SDTM","code":"APFT","name":"Associated Persons for FT","description":"Associated Persons for FT domain per CDISC specification.","structure":"One record per Functional Test finding per time point per visit per associated person","cls":"FINDINGS","purpose":"Tabulation","key_variables":"STUDYID, DOMAIN, USUBJID, APID, POOLID, SPDEVID","version":"1.0","status":"ACTIVE","updated_at":"2026-03-27T00:00:00.000Z","updated_by":"CDISC Standards Lead","change_reason":"Imported from SDTM IG"},{"study_id":"GLOBAL","standard":"SDTM","code":"APGF","name":"Associated Persons for GF","description":"Associated Persons for GF domain per CDISC specification.","structure":"One record per finding per observation per biospecimen per associated person","cls":"FINDINGS","purpose":"Tabulation","key_variables":"STUDYID, DOMAIN, USUBJID, APID, POOLID, SPDEVID","version":"1.0","status":"ACTIVE","updated_at":"2026-03-27T00:00:00.000Z","updated_by":"CDISC Standards Lead","change_reason":"Imported from SDTM IG"},{"study_id":"GLOBAL","standard":"SDTM","code":"APIE","name":"Associated Persons for IE","description":"Associated Persons for IE domain per CDISC specification.","structure":"One record per inclusion/exclusion criterion not met per associated person","cls":"FINDINGS","purpose":"Tabulation","key_variables":"STUDYID, DOMAIN, USUBJID, APID, POOLID, SPDEVID","version":"1.0","status":"ACTIVE","updated_at":"2026-03-27T00:00:00.000Z","updated_by":"CDISC Standards Lead","change_reason":"Imported from SDTM IG"},{"study_id":"GLOBAL","standard":"SDTM","code":"APIS","name":"Associated Persons for IS","description":"Associated Persons for IS domain per CDISC specification.","structure":"One record per test per visit per associated person","cls":"FINDINGS","purpose":"Tabulation","key_variables":"STUDYID, DOMAIN, USUBJID, APID, POOLID, SPDEVID","version":"1.0","status":"ACTIVE","updated_at":"2026-03-27T00:00:00.000Z","updated_by":"CDISC Standards Lead","change_reason":"Imported from SDTM IG"},{"study_id":"GLOBAL","standard":"SDTM","code":"APLB","name":"Associated Persons for LB","description":"Associated Persons for LB domain per CDISC specification.","structure":"One record per lab test per time point per visit per associated person","cls":"FINDINGS","purpose":"Tabulation","key_variables":"STUDYID, DOMAIN, USUBJID, APID, POOLID, SPDEVID","version":"1.0","status":"ACTIVE","updated_at":"2026-03-27T00:00:00.000Z","updated_by":"CDISC Standards Lead","change_reason":"Imported from SDTM IG"},{"study_id":"GLOBAL","standard":"SDTM","code":"APLC","name":"Associated Persons for LC","description":"Associated Persons for LC domain per CDISC specification.","structure":"One record per lab test per time point per visit per associated person","cls":"FINDINGS","purpose":"Tabulation","key_variables":"STUDYID, DOMAIN, USUBJID, APID, POOLID, SPDEVID","version":"1.0","status":"ACTIVE","updated_at":"2026-03-27T00:00:00.000Z","updated_by":"CDISC Standards Lead","change_reason":"Imported from SDTM IG"},{"study_id":"GLOBAL","standard":"SDTM","code":"APMB","name":"Associated Persons for MB","description":"Associated Persons for MB domain per CDISC specification.","structure":"One record per microbiology specimen finding per time point per visit per associated person","cls":"FINDINGS","purpose":"Tabulation","key_variables":"STUDYID, DOMAIN, USUBJID, APID, POOLID, SPDEVID","version":"1.0","status":"ACTIVE","updated_at":"2026-03-27T00:00:00.000Z","updated_by":"CDISC Standards Lead","change_reason":"Imported from SDTM IG"},{"study_id":"GLOBAL","standard":"SDTM","code":"APMI","name":"Associated Persons for MI","description":"Associated Persons for MI domain per CDISC specification.","structure":"One record per finding per specimen per associated person","cls":"FINDINGS","purpose":"Tabulation","key_variables":"STUDYID, DOMAIN, USUBJID, APID, POOLID, SPDEVID","version":"1.0","status":"ACTIVE","updated_at":"2026-03-27T00:00:00.000Z","updated_by":"CDISC Standards Lead","change_reason":"Imported from SDTM IG"},{"study_id":"GLOBAL","standard":"SDTM","code":"APMK","name":"Associated Persons for MK","description":"Associated Persons for MK domain per CDISC specification.","structure":"One record per assessment per visit per associated person","cls":"FINDINGS","purpose":"Tabulation","key_variables":"STUDYID, DOMAIN, USUBJID, APID, POOLID, SPDEVID","version":"1.0","status":"ACTIVE","updated_at":"2026-03-27T00:00:00.000Z","updated_by":"CDISC Standards Lead","change_reason":"Imported from SDTM IG"},{"study_id":"GLOBAL","standard":"SDTM","code":"APMS","name":"Associated Persons for MS","description":"Associated Persons for MS domain per CDISC specification.","structure":"One record per microbiology susceptibility test (or other organism-related finding) per organism found in MB","cls":"FINDINGS","purpose":"Tabulation","key_variables":"STUDYID, DOMAIN, USUBJID, APID, POOLID, SPDEVID","version":"1.0","status":"ACTIVE","updated_at":"2026-03-27T00:00:00.000Z","updated_by":"CDISC Standards Lead","change_reason":"Imported from SDTM IG"},{"study_id":"GLOBAL","standard":"SDTM","code":"APNV","name":"Associated Persons for NV","description":"Associated Persons for NV domain per CDISC specification.","structure":"One record per finding per location per time point per visit per associated person","cls":"FINDINGS","purpose":"Tabulation","key_variables":"STUDYID, DOMAIN, USUBJID, APID, POOLID, SPDEVID","version":"1.0","status":"ACTIVE","updated_at":"2026-03-27T00:00:00.000Z","updated_by":"CDISC Standards Lead","change_reason":"Imported from SDTM IG"},{"study_id":"GLOBAL","standard":"SDTM","code":"APOE","name":"Associated Persons for OE","description":"Associated Persons for OE domain per CDISC specification.","structure":"One record per ophthalmic finding per method per location, per time point per visit per associated person","cls":"FINDINGS","purpose":"Tabulation","key_variables":"STUDYID, DOMAIN, USUBJID, APID, POOLID, SPDEVID","version":"1.0","status":"ACTIVE","updated_at":"2026-03-27T00:00:00.000Z","updated_by":"CDISC Standards Lead","change_reason":"Imported from SDTM IG"},{"study_id":"GLOBAL","standard":"SDTM","code":"APPC","name":"Associated Persons for PC","description":"Associated Persons for PC domain per CDISC specification.","structure":"One record per sample characteristic or time-point concentration per reference time point or per analyte per associated person","cls":"FINDINGS","purpose":"Tabulation","key_variables":"STUDYID, DOMAIN, USUBJID, APID, POOLID, SPDEVID","version":"1.0","status":"ACTIVE","updated_at":"2026-03-27T00:00:00.000Z","updated_by":"CDISC Standards Lead","change_reason":"Imported from SDTM IG"},{"study_id":"GLOBAL","standard":"SDTM","code":"APPE","name":"Associated Persons for PE","description":"Associated Persons for PE domain per CDISC specification.","structure":"One record per body system or abnormality per visit per associated person","cls":"FINDINGS","purpose":"Tabulation","key_variables":"STUDYID, DOMAIN, USUBJID, APID, POOLID, SPDEVID","version":"1.0","status":"ACTIVE","updated_at":"2026-03-27T00:00:00.000Z","updated_by":"CDISC Standards Lead","change_reason":"Imported from SDTM IG"},{"study_id":"GLOBAL","standard":"SDTM","code":"APPP","name":"Associated Persons for PP","description":"Associated Persons for PP domain per CDISC specification.","structure":"One record per PK parameter per time-concentration profile per modeling method per associated person","cls":"FINDINGS","purpose":"Tabulation","key_variables":"STUDYID, DOMAIN, USUBJID, APID, POOLID, SPDEVID","version":"1.0","status":"ACTIVE","updated_at":"2026-03-27T00:00:00.000Z","updated_by":"CDISC Standards Lead","change_reason":"Imported from SDTM IG"},{"study_id":"GLOBAL","standard":"SDTM","code":"APQS","name":"Associated Persons for QS","description":"Associated Persons for QS domain per CDISC specification.","structure":"One record per questionnaire per question per time point per visit per associated person","cls":"FINDINGS","purpose":"Tabulation","key_variables":"STUDYID, DOMAIN, USUBJID, APID, POOLID, SPDEVID","version":"1.0","status":"ACTIVE","updated_at":"2026-03-27T00:00:00.000Z","updated_by":"CDISC Standards Lead","change_reason":"Imported from SDTM IG"},{"study_id":"GLOBAL","standard":"SDTM","code":"APRE","name":"Associated Persons for RE","description":"Associated Persons for RE domain per CDISC specification.","structure":"One record per finding or result per time point per visit per associated person","cls":"FINDINGS","purpose":"Tabulation","key_variables":"STUDYID, DOMAIN, USUBJID, APID, POOLID, SPDEVID","version":"1.0","status":"ACTIVE","updated_at":"2026-03-27T00:00:00.000Z","updated_by":"CDISC Standards Lead","change_reason":"Imported from SDTM IG"},{"study_id":"GLOBAL","standard":"SDTM","code":"APRP","name":"Associated Persons for RP","description":"Associated Persons for RP domain per CDISC specification.","structure":"One record per finding or result per time point per visit per associated person","cls":"FINDINGS","purpose":"Tabulation","key_variables":"STUDYID, DOMAIN, USUBJID, APID, POOLID, SPDEVID","version":"1.0","status":"ACTIVE","updated_at":"2026-03-27T00:00:00.000Z","updated_by":"CDISC Standards Lead","change_reason":"Imported from SDTM IG"},{"study_id":"GLOBAL","standard":"SDTM","code":"APRS","name":"Associated Persons for RS","description":"Associated Persons for RS domain per CDISC specification.","structure":"One record per response assessment or clinical classification assessment per time point per visit per associated person per assessor per medical evaluator","cls":"FINDINGS","purpose":"Tabulation","key_variables":"STUDYID, DOMAIN, USUBJID, APID, POOLID, SPDEVID","version":"1.0","status":"ACTIVE","updated_at":"2026-03-27T00:00:00.000Z","updated_by":"CDISC Standards Lead","change_reason":"Imported from SDTM IG"},{"study_id":"GLOBAL","standard":"SDTM","code":"APSC","name":"Associated Persons for SC","description":"Associated Persons for SC domain per CDISC specification.","structure":"One record per characteristic per visit per associated person","cls":"FINDINGS","purpose":"Tabulation","key_variables":"STUDYID, DOMAIN, USUBJID, APID, POOLID, SPDEVID","version":"1.0","status":"ACTIVE","updated_at":"2026-03-27T00:00:00.000Z","updated_by":"CDISC Standards Lead","change_reason":"Imported from SDTM IG"},{"study_id":"GLOBAL","standard":"SDTM","code":"APSS","name":"Associated Persons for SS","description":"Associated Persons for SS domain per CDISC specification.","structure":"One record per status per visit per associated person","cls":"FINDINGS","purpose":"Tabulation","key_variables":"STUDYID, DOMAIN, USUBJID, APID, POOLID, SPDEVID","version":"1.0","status":"ACTIVE","updated_at":"2026-03-27T00:00:00.000Z","updated_by":"CDISC Standards Lead","change_reason":"Imported from SDTM IG"},{"study_id":"GLOBAL","standard":"SDTM","code":"APTR","name":"Associated Persons for TR","description":"Associated Persons for TR domain per CDISC specification.","structure":"One record per tumor measurement/assessment per visit per associated person per assessor","cls":"FINDINGS","purpose":"Tabulation","key_variables":"STUDYID, DOMAIN, USUBJID, APID, POOLID, SPDEVID","version":"1.0","status":"ACTIVE","updated_at":"2026-03-27T00:00:00.000Z","updated_by":"CDISC Standards Lead","change_reason":"Imported from SDTM IG"},{"study_id":"GLOBAL","standard":"SDTM","code":"APTU","name":"Associated Persons for TU","description":"Associated Persons for TU domain per CDISC specification.","structure":"One record per identified tumor per associated person per assessor","cls":"FINDINGS","purpose":"Tabulation","key_variables":"STUDYID, DOMAIN, USUBJID, APID, POOLID, SPDEVID","version":"1.0","status":"ACTIVE","updated_at":"2026-03-27T00:00:00.000Z","updated_by":"CDISC Standards Lead","change_reason":"Imported from SDTM IG"},{"study_id":"GLOBAL","standard":"SDTM","code":"APUR","name":"Associated Persons for UR","description":"Associated Persons for UR domain per CDISC specification.","structure":"One record per finding per location per per visit per associated person","cls":"FINDINGS","purpose":"Tabulation","key_variables":"STUDYID, DOMAIN, USUBJID, APID, POOLID, SPDEVID","version":"1.0","status":"ACTIVE","updated_at":"2026-03-27T00:00:00.000Z","updated_by":"CDISC Standards Lead","change_reason":"Imported from SDTM IG"},{"study_id":"GLOBAL","standard":"SDTM","code":"APVS","name":"Associated Persons for VS","description":"Associated Persons for VS domain per CDISC specification.","structure":"One record per vital sign measurement per time point per visit per associated person","cls":"FINDINGS","purpose":"Tabulation","key_variables":"STUDYID, DOMAIN, USUBJID, APID, POOLID, SPDEVID","version":"1.0","status":"ACTIVE","updated_at":"2026-03-27T00:00:00.000Z","updated_by":"CDISC Standards Lead","change_reason":"Imported from SDTM IG"},{"study_id":"GLOBAL","standard":"SDTM","code":"BS","name":"Biospecimen Findings","description":"Biospecimen Findings domain per CDISC specification.","structure":"One record per measurement per biospecimen identifier per subject","cls":"FINDINGS","purpose":"Tabulation","key_variables":"STUDYID, DOMAIN, USUBJID, POOLID, SPDEVID, NHOID","version":"1.0","status":"ACTIVE","updated_at":"2026-03-27T00:00:00.000Z","updated_by":"CDISC Standards Lead","change_reason":"Imported from SDTM IG"},{"study_id":"GLOBAL","standard":"SDTM","code":"CP","name":"Cell Phenotype Findings","description":"Cell Phenotype Findings domain per CDISC specification.","structure":"One record per test per specimen per timepoint per visit per subject","cls":"FINDINGS","purpose":"Tabulation","key_variables":"STUDYID, DOMAIN, USUBJID, POOLID, SPDEVID, NHOID","version":"1.0","status":"ACTIVE","updated_at":"2026-03-27T00:00:00.000Z","updated_by":"CDISC Standards Lead","change_reason":"Imported from SDTM IG"},{"study_id":"GLOBAL","standard":"SDTM","code":"CV","name":"Cardiovascular System Findings","description":"Cardiovascular System Findings domain per CDISC specification.","structure":"One record per finding or result per time point per visit per subject","cls":"FINDINGS","purpose":"Tabulation","key_variables":"STUDYID, DOMAIN, USUBJID, POOLID, SPDEVID, NHOID","version":"1.0","status":"ACTIVE","updated_at":"2026-03-27T00:00:00.000Z","updated_by":"CDISC Standards Lead","change_reason":"Imported from SDTM IG"},{"study_id":"GLOBAL","standard":"SDTM","code":"DA","name":"Product Accountability","description":"Product Accountability domain per CDISC specification.","structure":"One record per product accountability finding per subject","cls":"FINDINGS","purpose":"Tabulation","key_variables":"STUDYID, DOMAIN, USUBJID, POOLID, SPDEVID, NHOID","version":"1.0","status":"ACTIVE","updated_at":"2026-03-27T00:00:00.000Z","updated_by":"CDISC Standards Lead","change_reason":"Imported from SDTM IG"},{"study_id":"GLOBAL","standard":"SDTM","code":"DD","name":"Death Details","description":"Death Details domain per CDISC specification.","structure":"One record per finding per subject","cls":"FINDINGS","purpose":"Tabulation","key_variables":"STUDYID, DOMAIN, USUBJID, POOLID, SPDEVID, NHOID","version":"1.0","status":"ACTIVE","updated_at":"2026-03-27T00:00:00.000Z","updated_by":"CDISC Standards Lead","change_reason":"Imported from SDTM IG"},{"study_id":"GLOBAL","standard":"SDTM","code":"DO","name":"Device Properties","description":"Device Properties domain per CDISC specification.","structure":"One record per property per device","cls":"FINDINGS","purpose":"Tabulation","key_variables":"STUDYID, DOMAIN, USUBJID, POOLID, SPDEVID, NHOID","version":"1.0","status":"ACTIVE","updated_at":"2026-03-27T00:00:00.000Z","updated_by":"CDISC Standards Lead","change_reason":"Imported from SDTM IG"},{"study_id":"GLOBAL","standard":"SDTM","code":"DU","name":"Device In-Use","description":"Device In-Use domain per CDISC specification.","structure":"One record per property or setting per time point per visit or test date per subject","cls":"FINDINGS","purpose":"Tabulation","key_variables":"STUDYID, DOMAIN, USUBJID, POOLID, SPDEVID, NHOID","version":"1.0","status":"ACTIVE","updated_at":"2026-03-27T00:00:00.000Z","updated_by":"CDISC Standards Lead","change_reason":"Imported from SDTM IG"},{"study_id":"GLOBAL","standard":"SDTM","code":"EG","name":"ECG Test Results","description":"ECG Test Results domain per CDISC specification.","structure":"One record per ECG observation per replicate per time point or one record per ECG observation per beat per visit per subject","cls":"FINDINGS","purpose":"Tabulation","key_variables":"STUDYID, DOMAIN, USUBJID, POOLID, SPDEVID, NHOID","version":"1.0","status":"ACTIVE","updated_at":"2026-03-27T00:00:00.000Z","updated_by":"CDISC Standards Lead","change_reason":"Imported from SDTM IG"},{"study_id":"GLOBAL","standard":"SDTM","code":"FT","name":"Functional Tests","description":"Functional Tests domain per CDISC specification.","structure":"One record per Functional Test finding per time point per visit per subject","cls":"FINDINGS","purpose":"Tabulation","key_variables":"STUDYID, DOMAIN, USUBJID, POOLID, SPDEVID, NHOID","version":"1.0","status":"ACTIVE","updated_at":"2026-03-27T00:00:00.000Z","updated_by":"CDISC Standards Lead","change_reason":"Imported from SDTM IG"},{"study_id":"GLOBAL","standard":"SDTM","code":"GF","name":"Genomics Findings","description":"Genomics Findings domain per CDISC specification.","structure":"One record per finding per observation per biospecimen per subject","cls":"FINDINGS","purpose":"Tabulation","key_variables":"STUDYID, DOMAIN, USUBJID, POOLID, SPDEVID, NHOID","version":"1.0","status":"ACTIVE","updated_at":"2026-03-27T00:00:00.000Z","updated_by":"CDISC Standards Lead","change_reason":"Imported from SDTM IG"},{"study_id":"GLOBAL","standard":"SDTM","code":"IE","name":"Inclusion/Exclusion Criteria Not Met","description":"Inclusion/Exclusion Criteria Not Met domain per CDISC specification.","structure":"One record per inclusion/exclusion criterion not met per subject","cls":"FINDINGS","purpose":"Tabulation","key_variables":"STUDYID, DOMAIN, USUBJID, POOLID, SPDEVID, NHOID","version":"1.0","status":"ACTIVE","updated_at":"2026-03-27T00:00:00.000Z","updated_by":"CDISC Standards Lead","change_reason":"Imported from SDTM IG"},{"study_id":"GLOBAL","standard":"SDTM","code":"IS","name":"Immunogenicity Specimen Assessments","description":"Immunogenicity Specimen Assessments domain per CDISC specification.","structure":"One record per test per visit per subject","cls":"FINDINGS","purpose":"Tabulation","key_variables":"STUDYID, DOMAIN, USUBJID, POOLID, SPDEVID, NHOID","version":"1.0","status":"ACTIVE","updated_at":"2026-03-27T00:00:00.000Z","updated_by":"CDISC Standards Lead","change_reason":"Imported from SDTM IG"},{"study_id":"GLOBAL","standard":"SDTM","code":"LB","name":"Laboratory Test Results","description":"Laboratory Test Results domain per CDISC specification.","structure":"One record per lab test per time point per visit per subject","cls":"FINDINGS","purpose":"Tabulation","key_variables":"STUDYID, DOMAIN, USUBJID, POOLID, SPDEVID, NHOID","version":"1.0","status":"ACTIVE","updated_at":"2026-03-27T00:00:00.000Z","updated_by":"CDISC Standards Lead","change_reason":"Imported from SDTM IG"},{"study_id":"GLOBAL","standard":"SDTM","code":"LC","name":"Laboratory Results Conventional Units","description":"Laboratory Results Conventional Units domain per CDISC specification.","structure":"One record per lab test per time point per visit per subject","cls":"FINDINGS","purpose":"Tabulation","key_variables":"STUDYID, DOMAIN, USUBJID, POOLID, SPDEVID, NHOID","version":"1.0","status":"ACTIVE","updated_at":"2026-03-27T00:00:00.000Z","updated_by":"CDISC Standards Lead","change_reason":"Imported from SDTM IG"},{"study_id":"GLOBAL","standard":"SDTM","code":"MB","name":"Microbiology Specimen","description":"Microbiology Specimen domain per CDISC specification.","structure":"One record per microbiology specimen finding per time point per visit per subject","cls":"FINDINGS","purpose":"Tabulation","key_variables":"STUDYID, DOMAIN, USUBJID, POOLID, SPDEVID, NHOID","version":"1.0","status":"ACTIVE","updated_at":"2026-03-27T00:00:00.000Z","updated_by":"CDISC Standards Lead","change_reason":"Imported from SDTM IG"},{"study_id":"GLOBAL","standard":"SDTM","code":"MI","name":"Microscopic Findings","description":"Microscopic Findings domain per CDISC specification.","structure":"One record per finding per specimen per subject","cls":"FINDINGS","purpose":"Tabulation","key_variables":"STUDYID, DOMAIN, USUBJID, POOLID, SPDEVID, NHOID","version":"1.0","status":"ACTIVE","updated_at":"2026-03-27T00:00:00.000Z","updated_by":"CDISC Standards Lead","change_reason":"Imported from SDTM IG"},{"study_id":"GLOBAL","standard":"SDTM","code":"MK","name":"Musculoskeletal System Findings","description":"Musculoskeletal System Findings domain per CDISC specification.","structure":"One record per assessment per visit per subject","cls":"FINDINGS","purpose":"Tabulation","key_variables":"STUDYID, DOMAIN, USUBJID, POOLID, SPDEVID, NHOID","version":"1.0","status":"ACTIVE","updated_at":"2026-03-27T00:00:00.000Z","updated_by":"CDISC Standards Lead","change_reason":"Imported from SDTM IG"},{"study_id":"GLOBAL","standard":"SDTM","code":"MS","name":"Microbiology Susceptibility","description":"Microbiology Susceptibility domain per CDISC specification.","structure":"One record per microbiology susceptibility test (or other organism-related finding) per organism found in MB","cls":"FINDINGS","purpose":"Tabulation","key_variables":"STUDYID, DOMAIN, USUBJID, POOLID, SPDEVID, NHOID","version":"1.0","status":"ACTIVE","updated_at":"2026-03-27T00:00:00.000Z","updated_by":"CDISC Standards Lead","change_reason":"Imported from SDTM IG"},{"study_id":"GLOBAL","standard":"SDTM","code":"NV","name":"Nervous System Findings","description":"Nervous System Findings domain per CDISC specification.","structure":"One record per finding per location per time point per visit per subject","cls":"FINDINGS","purpose":"Tabulation","key_variables":"STUDYID, DOMAIN, USUBJID, POOLID, SPDEVID, NHOID","version":"1.0","status":"ACTIVE","updated_at":"2026-03-27T00:00:00.000Z","updated_by":"CDISC Standards Lead","change_reason":"Imported from SDTM IG"},{"study_id":"GLOBAL","standard":"SDTM","code":"OE","name":"Ophthalmic Examinations","description":"Ophthalmic Examinations domain per CDISC specification.","structure":"One record per ophthalmic finding per method per location, per time point per visit per subject","cls":"FINDINGS","purpose":"Tabulation","key_variables":"STUDYID, DOMAIN, USUBJID, POOLID, SPDEVID, NHOID","version":"1.0","status":"ACTIVE","updated_at":"2026-03-27T00:00:00.000Z","updated_by":"CDISC Standards Lead","change_reason":"Imported from SDTM IG"},{"study_id":"GLOBAL","standard":"SDTM","code":"PC","name":"Pharmacokinetics Concentrations","description":"Pharmacokinetics Concentrations domain per CDISC specification.","structure":"One record per sample characteristic or time-point concentration per reference time point or per analyte per subject","cls":"FINDINGS","purpose":"Tabulation","key_variables":"STUDYID, DOMAIN, USUBJID, POOLID, SPDEVID, NHOID","version":"1.0","status":"ACTIVE","updated_at":"2026-03-27T00:00:00.000Z","updated_by":"CDISC Standards Lead","change_reason":"Imported from SDTM IG"},{"study_id":"GLOBAL","standard":"SDTM","code":"PE","name":"Physical Examination","description":"Physical Examination domain per CDISC specification.","structure":"One record per body system or abnormality per visit per subject","cls":"FINDINGS","purpose":"Tabulation","key_variables":"STUDYID, DOMAIN, USUBJID, POOLID, SPDEVID, NHOID","version":"1.0","status":"ACTIVE","updated_at":"2026-03-27T00:00:00.000Z","updated_by":"CDISC Standards Lead","change_reason":"Imported from SDTM IG"},{"study_id":"GLOBAL","standard":"SDTM","code":"PP","name":"Pharmacokinetics Parameters","description":"Pharmacokinetics Parameters domain per CDISC specification.","structure":"One record per PK parameter per time-concentration profile per modeling method per subject","cls":"FINDINGS","purpose":"Tabulation","key_variables":"STUDYID, DOMAIN, USUBJID, POOLID, SPDEVID, NHOID","version":"1.0","status":"ACTIVE","updated_at":"2026-03-27T00:00:00.000Z","updated_by":"CDISC Standards Lead","change_reason":"Imported from SDTM IG"},{"study_id":"GLOBAL","standard":"SDTM","code":"QS","name":"Questionnaires","description":"Questionnaires domain per CDISC specification.","structure":"One record per questionnaire per question per time point per visit per subject","cls":"FINDINGS","purpose":"Tabulation","key_variables":"STUDYID, DOMAIN, USUBJID, POOLID, SPDEVID, NHOID","version":"1.0","status":"ACTIVE","updated_at":"2026-03-27T00:00:00.000Z","updated_by":"CDISC Standards Lead","change_reason":"Imported from SDTM IG"},{"study_id":"GLOBAL","standard":"SDTM","code":"RE","name":"Respiratory System Findings","description":"Respiratory System Findings domain per CDISC specification.","structure":"One record per finding or result per time point per visit per subject","cls":"FINDINGS","purpose":"Tabulation","key_variables":"STUDYID, DOMAIN, USUBJID, POOLID, SPDEVID, NHOID","version":"1.0","status":"ACTIVE","updated_at":"2026-03-27T00:00:00.000Z","updated_by":"CDISC Standards Lead","change_reason":"Imported from SDTM IG"},{"study_id":"GLOBAL","standard":"SDTM","code":"RP","name":"Reproductive System Findings","description":"Reproductive System Findings domain per CDISC specification.","structure":"One record per finding or result per time point per visit per subject","cls":"FINDINGS","purpose":"Tabulation","key_variables":"STUDYID, DOMAIN, USUBJID, POOLID, SPDEVID, NHOID","version":"1.0","status":"ACTIVE","updated_at":"2026-03-27T00:00:00.000Z","updated_by":"CDISC Standards Lead","change_reason":"Imported from SDTM IG"},{"study_id":"GLOBAL","standard":"SDTM","code":"RS","name":"Disease Response and Clin Classification","description":"Disease Response and Clin Classification domain per CDISC specification.","structure":"One record per response assessment or clinical classification assessment per time point per visit per subject per assessor per medical evaluator","cls":"FINDINGS","purpose":"Tabulation","key_variables":"STUDYID, DOMAIN, USUBJID, POOLID, SPDEVID, NHOID","version":"1.0","status":"ACTIVE","updated_at":"2026-03-27T00:00:00.000Z","updated_by":"CDISC Standards Lead","change_reason":"Imported from SDTM IG"},{"study_id":"GLOBAL","standard":"SDTM","code":"SC","name":"Subject Characteristics","description":"Subject Characteristics domain per CDISC specification.","structure":"One record per characteristic per visit per subject","cls":"FINDINGS","purpose":"Tabulation","key_variables":"STUDYID, DOMAIN, USUBJID, POOLID, SPDEVID, NHOID","version":"1.0","status":"ACTIVE","updated_at":"2026-03-27T00:00:00.000Z","updated_by":"CDISC Standards Lead","change_reason":"Imported from SDTM IG"},{"study_id":"GLOBAL","standard":"SDTM","code":"SS","name":"Subject Status","description":"Subject Status domain per CDISC specification.","structure":"One record per status per visit per subject","cls":"FINDINGS","purpose":"Tabulation","key_variables":"STUDYID, DOMAIN, USUBJID, POOLID, SPDEVID, NHOID","version":"1.0","status":"ACTIVE","updated_at":"2026-03-27T00:00:00.000Z","updated_by":"CDISC Standards Lead","change_reason":"Imported from SDTM IG"},{"study_id":"GLOBAL","standard":"SDTM","code":"TR","name":"Tumor/Lesion Results","description":"Tumor/Lesion Results domain per CDISC specification.","structure":"One record per tumor measurement/assessment per visit per subject per assessor","cls":"FINDINGS","purpose":"Tabulation","key_variables":"STUDYID, DOMAIN, USUBJID, POOLID, SPDEVID, NHOID","version":"1.0","status":"ACTIVE","updated_at":"2026-03-27T00:00:00.000Z","updated_by":"CDISC Standards Lead","change_reason":"Imported from SDTM IG"},{"study_id":"GLOBAL","standard":"SDTM","code":"TU","name":"Tumor/Lesion Identification","description":"Tumor/Lesion Identification domain per CDISC specification.","structure":"One record per identified tumor per subject per assessor","cls":"FINDINGS","purpose":"Tabulation","key_variables":"STUDYID, DOMAIN, USUBJID, POOLID, SPDEVID, NHOID","version":"1.0","status":"ACTIVE","updated_at":"2026-03-27T00:00:00.000Z","updated_by":"CDISC Standards Lead","change_reason":"Imported from SDTM IG"},{"study_id":"GLOBAL","standard":"SDTM","code":"UR","name":"Urinary System Findings","description":"Urinary System Findings domain per CDISC specification.","structure":"One record per finding per location per per visit per subject","cls":"FINDINGS","purpose":"Tabulation","key_variables":"STUDYID, DOMAIN, USUBJID, POOLID, SPDEVID, NHOID","version":"1.0","status":"ACTIVE","updated_at":"2026-03-27T00:00:00.000Z","updated_by":"CDISC Standards Lead","change_reason":"Imported from SDTM IG"},{"study_id":"GLOBAL","standard":"SDTM","code":"VS","name":"Vital Signs","description":"Vital Signs domain per CDISC specification.","structure":"One record per vital sign measurement per time point per visit per subject","cls":"FINDINGS","purpose":"Tabulation","key_variables":"STUDYID, DOMAIN, USUBJID, POOLID, SPDEVID, NHOID","version":"1.0","status":"ACTIVE","updated_at":"2026-03-27T00:00:00.000Z","updated_by":"CDISC Standards Lead","change_reason":"Imported from SDTM IG"},{"study_id":"GLOBAL","standard":"SDTM","code":"AP FINDINGS ABOUT","name":"Associated Persons Findings About","description":"Associated Persons Findings About domain per CDISC specification.","structure":"One record per finding per object per time point per time point reference per visit per subject","cls":"FINDINGS ABOUT","purpose":"Tabulation","key_variables":"STUDYID, DOMAIN, USUBJID, APID, POOLID, SPDEVID","version":"1.0","status":"ACTIVE","updated_at":"2026-03-27T00:00:00.000Z","updated_by":"CDISC Standards Lead","change_reason":"Imported from SDTM IG"},{"study_id":"GLOBAL","standard":"SDTM","code":"FINDINGS ABOUT","name":"Findings About Events or Interventions","description":"Findings About Events or Interventions domain per CDISC specification.","structure":"One record per finding per object per time point per time point reference per visit per subject","cls":"FINDINGS ABOUT","purpose":"Tabulation","key_variables":"STUDYID, DOMAIN, USUBJID, POOLID, SPDEVID, NHOID","version":"1.0","status":"ACTIVE","updated_at":"2026-03-27T00:00:00.000Z","updated_by":"CDISC Standards Lead","change_reason":"Imported from SDTM IG"},{"study_id":"GLOBAL","standard":"SDTM","code":"APFA","name":"Associated Persons for FA","description":"Associated Persons for FA domain per CDISC specification.","structure":"One record per finding, per object, per time point, per visit per associated person","cls":"FINDINGS ABOUT","purpose":"Tabulation","key_variables":"STUDYID, DOMAIN, USUBJID, APID, POOLID, SPDEVID","version":"1.0","status":"ACTIVE","updated_at":"2026-03-27T00:00:00.000Z","updated_by":"CDISC Standards Lead","change_reason":"Imported from SDTM IG"},{"study_id":"GLOBAL","standard":"SDTM","code":"APSR","name":"Associated Persons for SR","description":"Associated Persons for SR domain per CDISC specification.","structure":"One record per finding, per object, per time point, per visit per associated person","cls":"FINDINGS ABOUT","purpose":"Tabulation","key_variables":"STUDYID, DOMAIN, USUBJID, APID, POOLID, SPDEVID","version":"1.0","status":"ACTIVE","updated_at":"2026-03-27T00:00:00.000Z","updated_by":"CDISC Standards Lead","change_reason":"Imported from SDTM IG"},{"study_id":"GLOBAL","standard":"SDTM","code":"FA","name":"Findings About Events or Interventions","description":"Findings About Events or Interventions domain per CDISC specification.","structure":"One record per finding, per object, per time point, per visit per subject","cls":"FINDINGS ABOUT","purpose":"Tabulation","key_variables":"STUDYID, DOMAIN, USUBJID, POOLID, SPDEVID, NHOID","version":"1.0","status":"ACTIVE","updated_at":"2026-03-27T00:00:00.000Z","updated_by":"CDISC Standards Lead","change_reason":"Imported from SDTM IG"},{"study_id":"GLOBAL","standard":"SDTM","code":"SR","name":"Skin Response","description":"Skin Response domain per CDISC specification.","structure":"One record per finding, per object, per time point, per visit per subject","cls":"FINDINGS ABOUT","purpose":"Tabulation","key_variables":"STUDYID, DOMAIN, USUBJID, POOLID, SPDEVID, NHOID","version":"1.0","status":"ACTIVE","updated_at":"2026-03-27T00:00:00.000Z","updated_by":"CDISC Standards Lead","change_reason":"Imported from SDTM IG"},{"study_id":"GLOBAL","standard":"SDTM","code":"SQAP","name":"Associated Persons for SUPPQUAL","description":"Associated Persons for SUPPQUAL domain per CDISC specification.","structure":"One record per IDVAR, IDVARVAL, and QNAM value per associated person per related domain","cls":"RELATIONSHIP","purpose":"Tabulation","key_variables":"STUDYID, RDOMAIN, APID, IDVAR, IDVARVAL, QNAM","version":"1.0","status":"ACTIVE","updated_at":"2026-03-27T00:00:00.000Z","updated_by":"CDISC Standards Lead","change_reason":"Imported from SDTM IG"},{"study_id":"GLOBAL","standard":"SDTM","code":"SUPPQUAL","name":"Supplemental Qualifiers","description":"Supplemental Qualifiers domain per CDISC specification.","structure":"One record per supplemental qualifier per related parent domain record(s)","cls":"RELATIONSHIP","purpose":"Tabulation","key_variables":"STUDYID, RDOMAIN, USUBJID, POOLID, SPDEVID, IDVAR","version":"1.0","status":"ACTIVE","updated_at":"2026-03-27T00:00:00.000Z","updated_by":"CDISC Standards Lead","change_reason":"Imported from SDTM IG"},{"study_id":"GLOBAL","standard":"SDTM","code":"APRELSUB","name":"Associated Persons Related to Subjects","description":"Associated Persons Related to Subjects domain per CDISC specification.","structure":"One record per relationship per related subject per associated person","cls":"RELATIONSHIP","purpose":"Tabulation","key_variables":"STUDYID, APID, USUBJID, POOLID, RSUBJID, RDEVID","version":"1.0","status":"ACTIVE","updated_at":"2026-03-27T00:00:00.000Z","updated_by":"CDISC Standards Lead","change_reason":"Imported from SDTM IG"},{"study_id":"GLOBAL","standard":"SDTM","code":"DR","name":"Device-Subject Relationships","description":"Device-Subject Relationships domain per CDISC specification.","structure":"One record per device/subject combination","cls":"RELATIONSHIP","purpose":"Tabulation","key_variables":"STUDYID, DOMAIN, USUBJID, SPDEVID","version":"1.0","status":"ACTIVE","updated_at":"2026-03-27T00:00:00.000Z","updated_by":"CDISC Standards Lead","change_reason":"Imported from SDTM IG"},{"study_id":"GLOBAL","standard":"SDTM","code":"POOLDEF","name":"Pool Definition","description":"Pool Definition domain per CDISC specification.","structure":"One record per STUDYID, POOLID, USUBJID","cls":"RELATIONSHIP","purpose":"Tabulation","key_variables":"STUDYID, POOLID, USUBJID, APID","version":"1.0","status":"ACTIVE","updated_at":"2026-03-27T00:00:00.000Z","updated_by":"CDISC Standards Lead","change_reason":"Imported from SDTM IG"},{"study_id":"GLOBAL","standard":"SDTM","code":"RELREC","name":"Related Records","description":"Related Records domain per CDISC specification.","structure":"One record per related record, group of records or dataset","cls":"RELATIONSHIP","purpose":"Tabulation","key_variables":"STUDYID, RDOMAIN, USUBJID, APID, POOLID, SPDEVID","version":"1.0","status":"ACTIVE","updated_at":"2026-03-27T00:00:00.000Z","updated_by":"CDISC Standards Lead","change_reason":"Imported from SDTM IG"},{"study_id":"GLOBAL","standard":"SDTM","code":"RELSPEC","name":"Related Specimens","description":"Related Specimens domain per CDISC specification.","structure":"One record per specimen identifier per subject","cls":"RELATIONSHIP","purpose":"Tabulation","key_variables":"STUDYID, USUBJID, POOLID, REFID, PARENT","version":"1.0","status":"ACTIVE","updated_at":"2026-03-27T00:00:00.000Z","updated_by":"CDISC Standards Lead","change_reason":"Imported from SDTM IG"},{"study_id":"GLOBAL","standard":"SDTM","code":"RELSUB","name":"Related Subjects","description":"Related Subjects domain per CDISC specification.","structure":"One record per relationship per related subject per subject","cls":"RELATIONSHIP","purpose":"Tabulation","key_variables":"STUDYID, USUBJID, POOLID, RSUBJID, SREL","version":"1.0","status":"ACTIVE","updated_at":"2026-03-27T00:00:00.000Z","updated_by":"CDISC Standards Lead","change_reason":"Imported from SDTM IG"},{"study_id":"GLOBAL","standard":"SDTM","code":"DI","name":"Device Identifiers","description":"Device Identifiers domain per CDISC specification.","structure":"One record per device identifier per device","cls":"STUDY REFERENCE","purpose":"Tabulation","key_variables":"STUDYID, DOMAIN, SPDEVID, DISEQ","version":"1.0","status":"ACTIVE","updated_at":"2026-03-27T00:00:00.000Z","updated_by":"CDISC Standards Lead","change_reason":"Imported from SDTM IG"},{"study_id":"GLOBAL","standard":"SDTM","code":"OI","name":"Non-host Organism Identifiers","description":"Non-host Organism Identifiers domain per CDISC specification.","structure":"One record per taxon per non-host organism","cls":"STUDY REFERENCE","purpose":"Tabulation","key_variables":"STUDYID, DOMAIN, NHOID, OISEQ, OIPARMCD","version":"1.0","status":"ACTIVE","updated_at":"2026-03-27T00:00:00.000Z","updated_by":"CDISC Standards Lead","change_reason":"Imported from SDTM IG"},{"study_id":"GLOBAL","standard":"ADaM","code":"ADSL","name":"Subject-Level Analysis Dataset","description":"Subject-Level Analysis Dataset dataset per CDISC specification.","structure":"One record per subject","cls":"SUBJECT LEVEL ANALYSIS DATASET","purpose":"Analysis","key_variables":"STUDYID, USUBJID, SUBJID, SITEID, SITEGR#, SITEGR#N","version":"1.0","status":"ACTIVE","updated_at":"2026-03-27T00:00:00.000Z","updated_by":"CDISC Standards Lead","change_reason":"Imported from ADaM IG"},{"study_id":"GLOBAL","standard":"ADaM","code":"ADDL","name":"Device-level Analysis Dataset","description":"Device-level Analysis Dataset dataset per CDISC specification.","structure":"One record per device per subject","cls":"DEVICE LEVEL ANALYSIS DATASET","purpose":"Analysis","key_variables":"STUDYID, SPDEVID, USUBJID, SUBJID, SITEID, SITEGR#","version":"1.0","status":"ACTIVE","updated_at":"2026-03-27T00:00:00.000Z","updated_by":"CDISC Standards Lead","change_reason":"Imported from ADaM IG"},{"study_id":"GLOBAL","standard":"ADaM","code":"ADNCA","name":"Non-Compartmental Analysis","description":"Non-Compartmental Analysis dataset per CDISC specification.","structure":"One or more records per subject per analysis parameter per analysis visit per analysis timepoint","cls":"BASIC DATA STRUCTURE","purpose":"Analysis","key_variables":"STUDYID, USUBJID, SUBJID, SITEID, ASEQ, AVISIT","version":"1.0","status":"ACTIVE","updated_at":"2026-03-27T00:00:00.000Z","updated_by":"CDISC Standards Lead","change_reason":"Imported from ADaM IG"},{"study_id":"GLOBAL","standard":"ADaM","code":"ADPPK","name":"Population PK Analysis Dataset","description":"Population PK Analysis Dataset dataset per CDISC specification.","structure":"One record per subject per parameter (analyte) per analysis timepoint per event (dosing or observation)","cls":"BASIC DATA STRUCTURE","purpose":"Analysis","key_variables":"STUDYID, USUBJID, ASEQ, AFRLT, EVID, DVID","version":"1.0","status":"ACTIVE","updated_at":"2026-03-27T00:00:00.000Z","updated_by":"CDISC Standards Lead","change_reason":"Imported from ADaM IG"},{"study_id":"GLOBAL","standard":"ADaM","code":"BDS","name":"Basic Data Structure","description":"Basic Data Structure dataset per CDISC specification.","structure":"One or more records per subject per analysis parameter per analysis timepoint","cls":"BASIC DATA STRUCTURE","purpose":"Analysis","key_variables":"STUDYID, USUBJID, SUBJID, SITEID, ASEQ, PARAM","version":"1.0","status":"ACTIVE","updated_at":"2026-03-27T00:00:00.000Z","updated_by":"CDISC Standards Lead","change_reason":"Imported from ADaM IG"},{"study_id":"GLOBAL","standard":"ADaM","code":"MDBDS","name":"Medical Device Basic Data Structure","description":"Medical Device Basic Data Structure dataset per CDISC specification.","structure":"One or more records per device per subject per analysis parameter per analysis timepoint","cls":"MEDICAL DEVICE BASIC DATA STRUCTURE","purpose":"Analysis","key_variables":"STUDYID, SPDEVID, USUBJID, SUBJID, SITEID, ASEQ","version":"1.0","status":"ACTIVE","updated_at":"2026-03-27T00:00:00.000Z","updated_by":"CDISC Standards Lead","change_reason":"Imported from ADaM IG"},{"study_id":"GLOBAL","standard":"ADaM","code":"OCCDS","name":"Occurrence Data Structure","description":"Occurrence Data Structure dataset per CDISC specification.","structure":"One or more records per subject per event or intervention","cls":"OCCURRENCE DATA STRUCTURE","purpose":"Analysis","key_variables":"STUDYID, USUBJID, SUBJID, SITEID, *SEQ, ASEQ","version":"1.0","status":"ACTIVE","updated_at":"2026-03-27T00:00:00.000Z","updated_by":"CDISC Standards Lead","change_reason":"Imported from ADaM IG"},{"study_id":"GLOBAL","standard":"ADaM","code":"ADAE","name":"Analysis Adverse Events","description":"Analysis Adverse Events dataset per CDISC specification.","structure":"One record per subject per adverse event","cls":"OCCURRENCE DATA STRUCTURE","purpose":"Analysis","key_variables":"STUDYID, USUBJID, SUBJID, SITEID, AESEQ, ASEQ","version":"1.0","status":"ACTIVE","updated_at":"2026-03-27T00:00:00.000Z","updated_by":"CDISC Standards Lead","change_reason":"Imported from ADaM IG"},{"study_id":"GLOBAL","standard":"ADaM","code":"MDOCCDS","name":"Medical Device Occurrence Data Structure","description":"Medical Device Occurrence Data Structure dataset per CDISC specification.","structure":"One or more records per device per subject per event or intervention","cls":"MEDICAL DEVICE OCCURRENCE DATA STRUCTURE","purpose":"Analysis","key_variables":"STUDYID, SPDEVID, USUBJID, SUBJID, SITEID, *SEQ","version":"1.0","status":"ACTIVE","updated_at":"2026-03-27T00:00:00.000Z","updated_by":"CDISC Standards Lead","change_reason":"Imported from ADaM IG"},{"study_id":"GLOBAL","standard":"ADaM","code":"ADAMOTHER","name":"ADaM Other","description":"ADaM Other dataset per CDISC specification.","structure":"One or more records per subject","cls":"ADAM OTHER","purpose":"Analysis","key_variables":"STUDYID, USUBJID, SITEID, SITEGR#, SITEGR#N, REGION#","version":"1.0","status":"ACTIVE","updated_at":"2026-03-27T00:00:00.000Z","updated_by":"CDISC Standards Lead","change_reason":"Imported from ADaM IG"}],"variables":[{"study_id":"GLOBAL","standard":"CDASH","domain":"AG","name":"STUDYID","label":"Study Identifier","type":"Char","length":200,"format":"","role":"IDENTIFIER","origin":"CRF","derivation":"SDTM Target: STUDYID","codelist":null,"key_seq":1,"core":"Req","version":"2.3","status":"ACTIVE","effective_from":"2026-03-27T00:00:00.000Z","updated_at":"2026-03-27T00:00:00.000Z","updated_by":"CDISC CDASH Team","change_reason":"CDASHIG v2.3 Release"},{"study_id":"GLOBAL","standard":"CDASH","domain":"AG","name":"SITEID","label":"Study Site Identifier","type":"Char","length":200,"format":"","role":"IDENTIFIER","origin":"CRF","derivation":"SDTM Target: SITEID","codelist":null,"key_seq":2,"core":"Req","version":"2.3","status":"ACTIVE","effective_from":"2026-03-27T00:00:00.000Z","updated_at":"2026-03-27T00:00:00.000Z","updated_by":"CDISC CDASH Team","change_reason":"CDASHIG v2.3 Release"},{"study_id":"GLOBAL","standard":"CDASH","domain":"AG","name":"SUBJID","label":"Subject Identifier for the Study","type":"Char","length":200,"format":"","role":"IDENTIFIER","origin":"CRF","derivation":"SDTM Target: SUBJID","codelist":null,"key_seq":3,"core":"Req","version":"2.3","status":"ACTIVE","effective_from":"2026-03-27T00:00:00.000Z","updated_at":"2026-03-27T00:00:00.000Z","updated_by":"CDISC CDASH Team","change_reason":"CDASHIG v2.3 Release"},{"study_id":"GLOBAL","standard":"CDASH","domain":"AG","name":"AGCAT","label":"Category for Agent","type":"Char","length":200,"format":"","role":"QUALIFIER","origin":"CRF","derivation":"SDTM Target: AGCAT","codelist":null,"key_seq":null,"core":"Perm","version":"2.3","status":"ACTIVE","effective_from":"2026-03-27T00:00:00.000Z","updated_at":"2026-03-27T00:00:00.000Z","updated_by":"CDISC CDASH Team","change_reason":"CDASHIG v2.3 Release"},{"study_id":"GLOBAL","standard":"CDASH","domain":"AG","name":"AGSCAT","label":"Subcategory for Agent","type":"Char","length":200,"format":"","role":"QUALIFIER","origin":"CRF","derivation":"SDTM Target: AGSCAT","codelist":null,"key_seq":null,"core":"Perm","version":"2.3","status":"ACTIVE","effective_from":"2026-03-27T00:00:00.000Z","updated_at":"2026-03-27T00:00:00.000Z","updated_by":"CDISC CDASH Team","change_reason":"CDASHIG v2.3 Release"},{"study_id":"GLOBAL","standard":"CDASH","domain":"AG","name":"AGYN","label":"Any Procedure Agent Taken","type":"Char","length":200,"format":"","role":"QUALIFIER","origin":"CRF","derivation":" · Does not map to an SDTMIG variable. The SDTM annotated CRF indicates that this field is NOT SUBMITTED.","codelist":"NY","key_seq":null,"core":"Perm","version":"2.3","status":"ACTIVE","effective_from":"2026-03-27T00:00:00.000Z","updated_at":"2026-03-27T00:00:00.000Z","updated_by":"CDISC CDASH Team","change_reason":"CDASHIG v2.3 Release"},{"study_id":"GLOBAL","standard":"CDASH","domain":"AG","name":"AGSPID","label":"AG Sponsor-Defined Identifier","type":"Char","length":200,"format":"","role":"QUALIFIER","origin":"CRF","derivation":"SDTM Target: AGSPID","codelist":null,"key_seq":null,"core":"Perm","version":"2.3","status":"ACTIVE","effective_from":"2026-03-27T00:00:00.000Z","updated_at":"2026-03-27T00:00:00.000Z","updated_by":"CDISC CDASH Team","change_reason":"CDASHIG v2.3 Release"},{"study_id":"GLOBAL","standard":"CDASH","domain":"AG","name":"AGTRT","label":"Reported Agent Name","type":"Char","length":200,"format":"","role":"TOPIC","origin":"CRF","derivation":"SDTM Target: AGTRT","codelist":null,"key_seq":null,"core":"Req","version":"2.3","status":"ACTIVE","effective_from":"2026-03-27T00:00:00.000Z","updated_at":"2026-03-27T00:00:00.000Z","updated_by":"CDISC CDASH Team","change_reason":"CDASHIG v2.3 Release"},{"study_id":"GLOBAL","standard":"CDASH","domain":"AG","name":"AGPRESP","label":"AG Prespecified","type":"Char","length":200,"format":"","role":"QUALIFIER","origin":"CRF","derivation":"SDTM Target: AGPRESP","codelist":"NY","key_seq":null,"core":"Perm","version":"2.3","status":"ACTIVE","effective_from":"2026-03-27T00:00:00.000Z","updated_at":"2026-03-27T00:00:00.000Z","updated_by":"CDISC CDASH Team","change_reason":"CDASHIG v2.3 Release"},{"study_id":"GLOBAL","standard":"CDASH","domain":"AG","name":"AGOCCUR","label":"AG Occurrence","type":"Char","length":200,"format":"","role":"QUALIFIER","origin":"CRF","derivation":"SDTM Target: AGOCCUR","codelist":"NY","key_seq":null,"core":"Perm","version":"2.3","status":"ACTIVE","effective_from":"2026-03-27T00:00:00.000Z","updated_at":"2026-03-27T00:00:00.000Z","updated_by":"CDISC CDASH Team","change_reason":"CDASHIG v2.3 Release"},{"study_id":"GLOBAL","standard":"CDASH","domain":"AG","name":"AGDOSE","label":"AG Dose per Administration","type":"Num","length":8,"format":"8.","role":"QUALIFIER","origin":"CRF","derivation":"SDTM Target: AGDOSE","codelist":null,"key_seq":null,"core":"Perm","version":"2.3","status":"ACTIVE","effective_from":"2026-03-27T00:00:00.000Z","updated_at":"2026-03-27T00:00:00.000Z","updated_by":"CDISC CDASH Team","change_reason":"CDASHIG v2.3 Release"},{"study_id":"GLOBAL","standard":"CDASH","domain":"AG","name":"AGDSTXT","label":"Procedure Agents Dose Description","type":"Char","length":200,"format":"","role":"QUALIFIER","origin":"CRF","derivation":"SDTM Target: AGDOSE; AGDOSTXT · This does not map directly to an SDTMIG variable. Numeric values map to AGDOSE in SDTM. Non-numeric values (e.g., 200-400) map to AGDOSTXT in SDTM.","codelist":null,"key_seq":null,"core":"Perm","version":"2.3","status":"ACTIVE","effective_from":"2026-03-27T00:00:00.000Z","updated_at":"2026-03-27T00:00:00.000Z","updated_by":"CDISC CDASH Team","change_reason":"CDASHIG v2.3 Release"},{"study_id":"GLOBAL","standard":"CDASH","domain":"AG","name":"AGDOSU","label":"AG Dose Units","type":"Char","length":200,"format":"","role":"QUALIFIER","origin":"CRF","derivation":"SDTM Target: AGDOSU","codelist":"UNIT; CMDOSU","key_seq":null,"core":"R/C","version":"2.3","status":"ACTIVE","effective_from":"2026-03-27T00:00:00.000Z","updated_at":"2026-03-27T00:00:00.000Z","updated_by":"CDISC CDASH Team","change_reason":"CDASHIG v2.3 Release"},{"study_id":"GLOBAL","standard":"CDASH","domain":"AG","name":"AGDOSFRM","label":"AG Dose Form","type":"Char","length":200,"format":"","role":"QUALIFIER","origin":"CRF","derivation":"SDTM Target: AGDOSFRM","codelist":"FRM; CMDOSFRM","key_seq":null,"core":"Perm","version":"2.3","status":"ACTIVE","effective_from":"2026-03-27T00:00:00.000Z","updated_at":"2026-03-27T00:00:00.000Z","updated_by":"CDISC CDASH Team","change_reason":"CDASHIG v2.3 Release"},{"study_id":"GLOBAL","standard":"CDASH","domain":"AG","name":"AGDOSFRQ","label":"AG Dosing Frequency per Interval","type":"Char","length":200,"format":"","role":"QUALIFIER","origin":"CRF","derivation":"SDTM Target: AGDOSFRQ","codelist":"FREQ; CMDOSFRQ","key_seq":null,"core":"Perm","version":"2.3","status":"ACTIVE","effective_from":"2026-03-27T00:00:00.000Z","updated_at":"2026-03-27T00:00:00.000Z","updated_by":"CDISC CDASH Team","change_reason":"CDASHIG v2.3 Release"},{"study_id":"GLOBAL","standard":"CDASH","domain":"AG","name":"AGROUTE","label":"AG Route of Administration","type":"Char","length":200,"format":"","role":"QUALIFIER","origin":"CRF","derivation":"SDTM Target: AGROUTE","codelist":"ROUTE; CMROUTE","key_seq":null,"core":"R/C","version":"2.3","status":"ACTIVE","effective_from":"2026-03-27T00:00:00.000Z","updated_at":"2026-03-27T00:00:00.000Z","updated_by":"CDISC CDASH Team","change_reason":"CDASHIG v2.3 Release"},{"study_id":"GLOBAL","standard":"CDASH","domain":"AG","name":"AGSTDAT","label":"Procedure Agent Start Date","type":"Char","length":200,"format":"","role":"QUALIFIER","origin":"CRF","derivation":"SDTM Target: AGSTDTC · This does not map directly to an SDTMIG variable. For the SDTM submission dataset, concatenate all collected CDASH START DATE and TIME components and populate the SDTMIG variable AGSTDTC in ISO 8601 format.","codelist":null,"key_seq":null,"core":"R/C","version":"2.3","status":"ACTIVE","effective_from":"2026-03-27T00:00:00.000Z","updated_at":"2026-03-27T00:00:00.000Z","updated_by":"CDISC CDASH Team","change_reason":"CDASHIG v2.3 Release"},{"study_id":"GLOBAL","standard":"CDASH","domain":"AG","name":"AGSTTIM","label":"Procedure Agent Start Time","type":"Char","length":200,"format":"","role":"TIMING","origin":"CRF","derivation":"SDTM Target: AGSTDTC · This does not map directly to an SDTMIG variable. For the SDTM submission dataset, concatenate all collected CDASH START DATE and TIME components and populate the SDTMIG variable AGSTDTC in ISO 8601 format.","codelist":null,"key_seq":null,"core":"R/C","version":"2.3","status":"ACTIVE","effective_from":"2026-03-27T00:00:00.000Z","updated_at":"2026-03-27T00:00:00.000Z","updated_by":"CDISC CDASH Team","change_reason":"CDASHIG v2.3 Release"},{"study_id":"GLOBAL","standard":"CDASH","domain":"AG","name":"AGPRIOR","label":"Prior Procedure Agents","type":"Char","length":200,"format":"","role":"QUALIFIER","origin":"CRF","derivation":"SDTM Target: AGSTRF; AGSTRTPT · This does not map directly to an SDTMIG variable. May be used to populate a value into an SDTMIG relative timing variable such as AGSTRF or AGSTRTPT. When populating AGSTRF or AGSTRTPT, if the value of the CDASH field AGPRIOR is \"Y\", a value from the CDISC CT (STENRF) may be used. When AGPRIOR refers to the Study Reference Period (defined in DM.RFSTDTC to DM.RFENDTC), the SDTMIG variable AGSTRF should be populated. When AGPRIOR is compared to another time point, the SDTMIG variables AGSTRTPT and AGSTTPT should be used. Note: AGSTRTPT must be in reference to the time-point anchor described in AGSTTPT.","codelist":"NY","key_seq":null,"core":"Perm","version":"2.3","status":"ACTIVE","effective_from":"2026-03-27T00:00:00.000Z","updated_at":"2026-03-27T00:00:00.000Z","updated_by":"CDISC CDASH Team","change_reason":"CDASHIG v2.3 Release"},{"study_id":"GLOBAL","standard":"CDASH","domain":"AG","name":"AGONGO","label":"Ongoing Procedure Agents","type":"Char","length":200,"format":"","role":"QUALIFIER","origin":"CRF","derivation":"SDTM Target: AGENRF; AGENRTPT · This does not map directly to an SDTMIG variable. May be used to populate a value into an SDTMIG relative timing variable such as AGENRF or AGENRTPT. When populating AGENRF, if the value of AGONGO is \"Y\", the values of \"DURING\", \"AFTER\" or \"DURING/AFTER\" may be used. When populating AGENRTPT, if the value of AGONGO is \"Y\", the value of \"ONGOING\" may be used. When AGONGO refers to the Study Reference Period (defined in DM.RFSTDTC to DM.RFENDTC), the SDTMIG variable AGENRF should be populated. When AGONGO is used in conjunction with another time point, the SDTMIG variables AGENRTPT and AGENTPT should be used. Note: AGENRTPT must be in reference to the time-point anchor described in AGENTPT.","codelist":"NY","key_seq":null,"core":"R/C","version":"2.3","status":"ACTIVE","effective_from":"2026-03-27T00:00:00.000Z","updated_at":"2026-03-27T00:00:00.000Z","updated_by":"CDISC CDASH Team","change_reason":"CDASHIG v2.3 Release"},{"study_id":"GLOBAL","standard":"CDASH","domain":"AG","name":"AGENDAT","label":"Procedure Agents End Date","type":"Char","length":200,"format":"","role":"QUALIFIER","origin":"CRF","derivation":"SDTM Target: AGENDTC · This does not map directly to an SDTMIG variable. For the SDTM submission dataset, concatenate all collected CDASH END DATE and TIME components and populate the SDTMIG variable CMENDTC in ISO 8601 format.","codelist":null,"key_seq":null,"core":"R/C","version":"2.3","status":"ACTIVE","effective_from":"2026-03-27T00:00:00.000Z","updated_at":"2026-03-27T00:00:00.000Z","updated_by":"CDISC CDASH Team","change_reason":"CDASHIG v2.3 Release"},{"study_id":"GLOBAL","standard":"CDASH","domain":"AG","name":"AGENTIM","label":"Procedure Agents End Time","type":"Char","length":200,"format":"","role":"TIMING","origin":"CRF","derivation":"SDTM Target: AGENDTC · This does not map directly to an SDTMIG variable. For the SDTM submission dataset, concatenate all collected CDASH END DATE and TIME components and populate the SDTMIG variable AGENDTC in ISO 8601 format.","codelist":null,"key_seq":null,"core":"R/C","version":"2.3","status":"ACTIVE","effective_from":"2026-03-27T00:00:00.000Z","updated_at":"2026-03-27T00:00:00.000Z","updated_by":"CDISC CDASH Team","change_reason":"CDASHIG v2.3 Release"},{"study_id":"GLOBAL","standard":"CDASH","domain":"AG","name":"AGDECOD","label":"Standardized Agent Name","type":"Char","length":200,"format":"","role":"QUALIFIER","origin":"CRF","derivation":"SDTM Target: AGDECOD","codelist":null,"key_seq":null,"core":"Perm","version":"2.3","status":"ACTIVE","effective_from":"2026-03-27T00:00:00.000Z","updated_at":"2026-03-27T00:00:00.000Z","updated_by":"CDISC CDASH Team","change_reason":"CDASHIG v2.3 Release"},{"study_id":"GLOBAL","standard":"CDASH","domain":"AG","name":"AGCLAS","label":"AG Agent Class","type":"Char","length":200,"format":"","role":"QUALIFIER","origin":"CRF","derivation":"SDTM Target: AGCLAS","codelist":null,"key_seq":null,"core":"Perm","version":"2.3","status":"ACTIVE","effective_from":"2026-03-27T00:00:00.000Z","updated_at":"2026-03-27T00:00:00.000Z","updated_by":"CDISC CDASH Team","change_reason":"CDASHIG v2.3 Release"},{"study_id":"GLOBAL","standard":"CDASH","domain":"AG","name":"AGCLASCD","label":"AG Agent Class Code","type":"Num","length":8,"format":"8.","role":"QUALIFIER","origin":"CRF","derivation":"SDTM Target: AGCLASCD","codelist":null,"key_seq":null,"core":"Perm","version":"2.3","status":"ACTIVE","effective_from":"2026-03-27T00:00:00.000Z","updated_at":"2026-03-27T00:00:00.000Z","updated_by":"CDISC CDASH Team","change_reason":"CDASHIG v2.3 Release"},{"study_id":"GLOBAL","standard":"CDASH","domain":"CM","name":"STUDYID","label":"Study Identifier","type":"Char","length":200,"format":"","role":"IDENTIFIER","origin":"CRF","derivation":"SDTM Target: STUDYID","codelist":null,"key_seq":1,"core":"Req","version":"2.3","status":"ACTIVE","effective_from":"2026-03-27T00:00:00.000Z","updated_at":"2026-03-27T00:00:00.000Z","updated_by":"CDISC CDASH Team","change_reason":"CDASHIG v2.3 Release"},{"study_id":"GLOBAL","standard":"CDASH","domain":"CM","name":"SITEID","label":"Study Site Identifier","type":"Char","length":200,"format":"","role":"IDENTIFIER","origin":"CRF","derivation":"SDTM Target: SITEID","codelist":null,"key_seq":2,"core":"Req","version":"2.3","status":"ACTIVE","effective_from":"2026-03-27T00:00:00.000Z","updated_at":"2026-03-27T00:00:00.000Z","updated_by":"CDISC CDASH Team","change_reason":"CDASHIG v2.3 Release"},{"study_id":"GLOBAL","standard":"CDASH","domain":"CM","name":"SUBJID","label":"Subject Identifier for the Study","type":"Char","length":200,"format":"","role":"IDENTIFIER","origin":"CRF","derivation":"SDTM Target: SUBJID","codelist":null,"key_seq":3,"core":"Req","version":"2.3","status":"ACTIVE","effective_from":"2026-03-27T00:00:00.000Z","updated_at":"2026-03-27T00:00:00.000Z","updated_by":"CDISC CDASH Team","change_reason":"CDASHIG v2.3 Release"},{"study_id":"GLOBAL","standard":"CDASH","domain":"CM","name":"CMCAT","label":"Category for Medication","type":"Char","length":200,"format":"","role":"QUALIFIER","origin":"CRF","derivation":"SDTM Target: CMCAT","codelist":null,"key_seq":null,"core":"Perm","version":"2.3","status":"ACTIVE","effective_from":"2026-03-27T00:00:00.000Z","updated_at":"2026-03-27T00:00:00.000Z","updated_by":"CDISC CDASH Team","change_reason":"CDASHIG v2.3 Release"},{"study_id":"GLOBAL","standard":"CDASH","domain":"CM","name":"CMSCAT","label":"Subcategory for Medication","type":"Char","length":200,"format":"","role":"QUALIFIER","origin":"CRF","derivation":"SDTM Target: CMSCAT","codelist":null,"key_seq":null,"core":"Perm","version":"2.3","status":"ACTIVE","effective_from":"2026-03-27T00:00:00.000Z","updated_at":"2026-03-27T00:00:00.000Z","updated_by":"CDISC CDASH Team","change_reason":"CDASHIG v2.3 Release"},{"study_id":"GLOBAL","standard":"CDASH","domain":"CM","name":"CMYN","label":"Any Concomitant Medications Taken","type":"Char","length":200,"format":"","role":"QUALIFIER","origin":"CRF","derivation":" · Does not map to an SDTMIG variable. The SDTM annotated CRF indicates that this field is NOT SUBMITTED.","codelist":"NY","key_seq":null,"core":"Perm","version":"2.3","status":"ACTIVE","effective_from":"2026-03-27T00:00:00.000Z","updated_at":"2026-03-27T00:00:00.000Z","updated_by":"CDISC CDASH Team","change_reason":"CDASHIG v2.3 Release"},{"study_id":"GLOBAL","standard":"CDASH","domain":"CM","name":"CMSPID","label":"CM Sponsor-Defined Identifier","type":"Char","length":200,"format":"","role":"QUALIFIER","origin":"CRF","derivation":"SDTM Target: CMSPID","codelist":null,"key_seq":null,"core":"Perm","version":"2.3","status":"ACTIVE","effective_from":"2026-03-27T00:00:00.000Z","updated_at":"2026-03-27T00:00:00.000Z","updated_by":"CDISC CDASH Team","change_reason":"CDASHIG v2.3 Release"},{"study_id":"GLOBAL","standard":"CDASH","domain":"CM","name":"CMTRT","label":"Reported Name of Drug, Med, or Therapy","type":"Char","length":200,"format":"","role":"TOPIC","origin":"CRF","derivation":"SDTM Target: CMTRT","codelist":null,"key_seq":null,"core":"Req","version":"2.3","status":"ACTIVE","effective_from":"2026-03-27T00:00:00.000Z","updated_at":"2026-03-27T00:00:00.000Z","updated_by":"CDISC CDASH Team","change_reason":"CDASHIG v2.3 Release"},{"study_id":"GLOBAL","standard":"CDASH","domain":"CM","name":"CMPRESP","label":"CM Prespecified","type":"Char","length":200,"format":"","role":"QUALIFIER","origin":"CRF","derivation":"SDTM Target: CMPRESP","codelist":"NY","key_seq":null,"core":"Perm","version":"2.3","status":"ACTIVE","effective_from":"2026-03-27T00:00:00.000Z","updated_at":"2026-03-27T00:00:00.000Z","updated_by":"CDISC CDASH Team","change_reason":"CDASHIG v2.3 Release"},{"study_id":"GLOBAL","standard":"CDASH","domain":"CM","name":"CMOCCUR","label":"CM Occurrence","type":"Char","length":200,"format":"","role":"QUALIFIER","origin":"CRF","derivation":"SDTM Target: CMOCCUR","codelist":"NY","key_seq":null,"core":"Perm","version":"2.3","status":"ACTIVE","effective_from":"2026-03-27T00:00:00.000Z","updated_at":"2026-03-27T00:00:00.000Z","updated_by":"CDISC CDASH Team","change_reason":"CDASHIG v2.3 Release"},{"study_id":"GLOBAL","standard":"CDASH","domain":"CM","name":"CMINGRD","label":"Concomitant Meds Active Ingredients","type":"Char","length":200,"format":"","role":"QUALIFIER","origin":"CRF","derivation":" · Does not map to an SDTMIG variable. The SDTM annotated CRF indicates that this field is NOT SUBMITTED.","codelist":null,"key_seq":null,"core":"Perm","version":"2.3","status":"ACTIVE","effective_from":"2026-03-27T00:00:00.000Z","updated_at":"2026-03-27T00:00:00.000Z","updated_by":"CDISC CDASH Team","change_reason":"CDASHIG v2.3 Release"},{"study_id":"GLOBAL","standard":"CDASH","domain":"CM","name":"CMINDC","label":"CM Indication","type":"Char","length":200,"format":"","role":"QUALIFIER","origin":"CRF","derivation":"SDTM Target: CMINDC","codelist":null,"key_seq":null,"core":"R/C","version":"2.3","status":"ACTIVE","effective_from":"2026-03-27T00:00:00.000Z","updated_at":"2026-03-27T00:00:00.000Z","updated_by":"CDISC CDASH Team","change_reason":"CDASHIG v2.3 Release"},{"study_id":"GLOBAL","standard":"CDASH","domain":"CM","name":"CMAENO","label":"Related Adverse Event ID","type":"Char","length":200,"format":"","role":"QUALIFIER","origin":"CRF","derivation":" · This does not map directly to an SDTMIG variable. For SDTM submission datasets, may be used to create RELREC to link this record with a record in the AE domain.","codelist":null,"key_seq":null,"core":"Perm","version":"2.3","status":"ACTIVE","effective_from":"2026-03-27T00:00:00.000Z","updated_at":"2026-03-27T00:00:00.000Z","updated_by":"CDISC CDASH Team","change_reason":"CDASHIG v2.3 Release"},{"study_id":"GLOBAL","standard":"CDASH","domain":"CM","name":"CMMHNO","label":"Related Medical History Event ID","type":"Char","length":200,"format":"","role":"QUALIFIER","origin":"CRF","derivation":" · This does not map directly to an SDTMIG variable. For SDTM submission datasets, may be used to create RELREC to link this record with a record in the MH domain.","codelist":null,"key_seq":null,"core":"Perm","version":"2.3","status":"ACTIVE","effective_from":"2026-03-27T00:00:00.000Z","updated_at":"2026-03-27T00:00:00.000Z","updated_by":"CDISC CDASH Team","change_reason":"CDASHIG v2.3 Release"},{"study_id":"GLOBAL","standard":"CDASH","domain":"CM","name":"CMDOSE","label":"CM Dose per Administration","type":"Num","length":8,"format":"8.","role":"QUALIFIER","origin":"CRF","derivation":"SDTM Target: CMDOSE","codelist":null,"key_seq":null,"core":"Perm","version":"2.3","status":"ACTIVE","effective_from":"2026-03-27T00:00:00.000Z","updated_at":"2026-03-27T00:00:00.000Z","updated_by":"CDISC CDASH Team","change_reason":"CDASHIG v2.3 Release"},{"study_id":"GLOBAL","standard":"CDASH","domain":"CM","name":"CMDSTXT","label":"Concomitant Meds Dose Description","type":"Char","length":200,"format":"","role":"QUALIFIER","origin":"CRF","derivation":"SDTM Target: CMDOSTXT; CMDOSE · This does not map directly to an SDTMIG variable. Numeric values map to CMDOSE in SDTM. Non-numeric values (e.g., \"200-400\") map to CMDOSTXT in SDTM.","codelist":null,"key_seq":null,"core":"Perm","version":"2.3","status":"ACTIVE","effective_from":"2026-03-27T00:00:00.000Z","updated_at":"2026-03-27T00:00:00.000Z","updated_by":"CDISC CDASH Team","change_reason":"CDASHIG v2.3 Release"},{"study_id":"GLOBAL","standard":"CDASH","domain":"CM","name":"CMDOSTOT","label":"CM Total Daily Dose","type":"Num","length":8,"format":"8.","role":"QUALIFIER","origin":"CRF","derivation":"SDTM Target: CMDOSTOT","codelist":null,"key_seq":null,"core":"Perm","version":"2.3","status":"ACTIVE","effective_from":"2026-03-27T00:00:00.000Z","updated_at":"2026-03-27T00:00:00.000Z","updated_by":"CDISC CDASH Team","change_reason":"CDASHIG v2.3 Release"},{"study_id":"GLOBAL","standard":"CDASH","domain":"CM","name":"CMDOSU","label":"CM Dose Units","type":"Char","length":200,"format":"","role":"QUALIFIER","origin":"CRF","derivation":"SDTM Target: CMDOSU","codelist":"UNIT; CMDOSU","key_seq":null,"core":"R/C","version":"2.3","status":"ACTIVE","effective_from":"2026-03-27T00:00:00.000Z","updated_at":"2026-03-27T00:00:00.000Z","updated_by":"CDISC CDASH Team","change_reason":"CDASHIG v2.3 Release"},{"study_id":"GLOBAL","standard":"CDASH","domain":"CM","name":"CMDOSFRM","label":"CM Dose Form","type":"Char","length":200,"format":"","role":"QUALIFIER","origin":"CRF","derivation":"SDTM Target: CMDOSFRM","codelist":"FRM; CMDOSFRM","key_seq":null,"core":"Perm","version":"2.3","status":"ACTIVE","effective_from":"2026-03-27T00:00:00.000Z","updated_at":"2026-03-27T00:00:00.000Z","updated_by":"CDISC CDASH Team","change_reason":"CDASHIG v2.3 Release"},{"study_id":"GLOBAL","standard":"CDASH","domain":"CM","name":"CMDOSFRQ","label":"CM Dosing Frequency per Interval","type":"Char","length":200,"format":"","role":"QUALIFIER","origin":"CRF","derivation":"SDTM Target: CMDOSFRQ","codelist":"FREQ; CMDOSFRQ","key_seq":null,"core":"Perm","version":"2.3","status":"ACTIVE","effective_from":"2026-03-27T00:00:00.000Z","updated_at":"2026-03-27T00:00:00.000Z","updated_by":"CDISC CDASH Team","change_reason":"CDASHIG v2.3 Release"},{"study_id":"GLOBAL","standard":"CDASH","domain":"CM","name":"CMROUTE","label":"CM Route of Administration","type":"Char","length":200,"format":"","role":"QUALIFIER","origin":"CRF","derivation":"SDTM Target: CMROUTE","codelist":"ROUTE; CMROUTE","key_seq":null,"core":"R/C","version":"2.3","status":"ACTIVE","effective_from":"2026-03-27T00:00:00.000Z","updated_at":"2026-03-27T00:00:00.000Z","updated_by":"CDISC CDASH Team","change_reason":"CDASHIG v2.3 Release"},{"study_id":"GLOBAL","standard":"CDASH","domain":"CM","name":"CMSTDAT","label":"Concomitant Meds Start Date","type":"Char","length":200,"format":"","role":"QUALIFIER","origin":"CRF","derivation":"SDTM Target: CMSTDTC · This does not map directly to an SDTMIG variable. For the SDTM submission dataset, concatenate all collected CDASH START DATE and TIME components and populate the SDTMIG variable CMSTDTC in ISO 8601 format.","codelist":null,"key_seq":null,"core":"R/C","version":"2.3","status":"ACTIVE","effective_from":"2026-03-27T00:00:00.000Z","updated_at":"2026-03-27T00:00:00.000Z","updated_by":"CDISC CDASH Team","change_reason":"CDASHIG v2.3 Release"},{"study_id":"GLOBAL","standard":"CDASH","domain":"CM","name":"CMSTTIM","label":"Concomitant Meds Start Time","type":"Char","length":200,"format":"","role":"TIMING","origin":"CRF","derivation":"SDTM Target: CMSTDTC · This does not map directly to an SDTMIG variable. For the SDTM submission dataset, concatenate all collected CDASH START DATE and TIME components and populate the SDTMIG variable CMSTDTC in ISO 8601 format.","codelist":null,"key_seq":null,"core":"R/C","version":"2.3","status":"ACTIVE","effective_from":"2026-03-27T00:00:00.000Z","updated_at":"2026-03-27T00:00:00.000Z","updated_by":"CDISC CDASH Team","change_reason":"CDASHIG v2.3 Release"},{"study_id":"GLOBAL","standard":"CDASH","domain":"CM","name":"CMPRIOR","label":"Prior Concomitant Meds","type":"Char","length":200,"format":"","role":"QUALIFIER","origin":"CRF","derivation":"SDTM Target: CMSTRF; CMSTRTPT · This does not map directly to an SDTMIG variable. May be used to populate a value into an SDTM relative timing variable such as CMSTRF or CMSTRTPT. When populating CMSTRF, or CMSTRTPT, if the value of the CDASH field CMPRIOR is \"Y\" a value from the CDISC CT (STENRF) may be used. When CMPRIOR refers to the Study Reference Period (defined in DM.RFSTDTC to DM.RFENDTC), the SDTM variable CMSTRF should be populated. When CMPRIOR is compared to another time point, the SDTM variables CMSTRTPT and CMSTTPT should be used. Note: CMSTRTPT must refer to the time-point anchor described in CMSTTPT.","codelist":"NY","key_seq":null,"core":"Perm","version":"2.3","status":"ACTIVE","effective_from":"2026-03-27T00:00:00.000Z","updated_at":"2026-03-27T00:00:00.000Z","updated_by":"CDISC CDASH Team","change_reason":"CDASHIG v2.3 Release"},{"study_id":"GLOBAL","standard":"CDASH","domain":"CM","name":"CMONGO","label":"Ongoing Concomitant Meds","type":"Char","length":200,"format":"","role":"QUALIFIER","origin":"CRF","derivation":"SDTM Target: CMENRF; CMENRTPT · This does not map directly to an SDTM variable. May be used to populate a value into an SDTMIG relative timing variable (e.g., CMENRF, CMENRTPT). When populating CMENRF, if the value of CMONGO is \"Y\", the values of \"DURING\", \"AFTER\", or \"DURING/AFTER\" may be used. When populating CMENRTPT, if the value of CMONGO is \"Y\", the value of \"ONGOING\" may be used. When CMONGO refers to the Study Reference Period (defined in DM.RFSTDTC to DM.RFENDTC) the SDTM variable CMENRF should be populated. When CMONGO is used in conjunction with another time point, the SDTM variables CMENRTPT and CMENTPT should be used. Note: CMENRTPT must refer to a time-point anchor described in CMENTPT.","codelist":"NY","key_seq":null,"core":"R/C","version":"2.3","status":"ACTIVE","effective_from":"2026-03-27T00:00:00.000Z","updated_at":"2026-03-27T00:00:00.000Z","updated_by":"CDISC CDASH Team","change_reason":"CDASHIG v2.3 Release"},{"study_id":"GLOBAL","standard":"CDASH","domain":"CM","name":"CMENDAT","label":"Concomitant Meds End Date","type":"Char","length":200,"format":"","role":"QUALIFIER","origin":"CRF","derivation":"SDTM Target: CMENDTC · This does not map directly to an SDTMIG variable. For the SDTM submission dataset, concatenate all collected CDASH END DATE and TIME components and populate the SDTMIG variable CMENDTC in ISO 8601 format.","codelist":null,"key_seq":null,"core":"R/C","version":"2.3","status":"ACTIVE","effective_from":"2026-03-27T00:00:00.000Z","updated_at":"2026-03-27T00:00:00.000Z","updated_by":"CDISC CDASH Team","change_reason":"CDASHIG v2.3 Release"},{"study_id":"GLOBAL","standard":"CDASH","domain":"CM","name":"CMENTIM","label":"Concomitant Meds End Time","type":"Char","length":200,"format":"","role":"TIMING","origin":"CRF","derivation":"SDTM Target: CMENDTC · This does not map directly to an SDTMIG variable. For the SDTM submission dataset, concatenate all collected CDASH END DATE and TIME components and populate the SDTMIG variable CMENDTC in ISO 8601 format.","codelist":null,"key_seq":null,"core":"R/C","version":"2.3","status":"ACTIVE","effective_from":"2026-03-27T00:00:00.000Z","updated_at":"2026-03-27T00:00:00.000Z","updated_by":"CDISC CDASH Team","change_reason":"CDASHIG v2.3 Release"},{"study_id":"GLOBAL","standard":"CDASH","domain":"CM","name":"CMRSDISC","label":"Reason for Treatment Discontinuation","type":"Char","length":200,"format":"","role":"QUALIFIER","origin":"CRF","derivation":"SDTM Target: CMRSDISC","codelist":null,"key_seq":null,"core":"Perm","version":"2.3","status":"ACTIVE","effective_from":"2026-03-27T00:00:00.000Z","updated_at":"2026-03-27T00:00:00.000Z","updated_by":"CDISC CDASH Team","change_reason":"CDASHIG v2.3 Release"},{"study_id":"GLOBAL","standard":"CDASH","domain":"CM","name":"CMDECOD","label":"Standardized Medication Name","type":"Char","length":200,"format":"","role":"QUALIFIER","origin":"CRF","derivation":"SDTM Target: CMDECOD","codelist":null,"key_seq":null,"core":"Perm","version":"2.3","status":"ACTIVE","effective_from":"2026-03-27T00:00:00.000Z","updated_at":"2026-03-27T00:00:00.000Z","updated_by":"CDISC CDASH Team","change_reason":"CDASHIG v2.3 Release"},{"study_id":"GLOBAL","standard":"CDASH","domain":"CM","name":"CMCLAS","label":"CM Medication Class","type":"Char","length":200,"format":"","role":"QUALIFIER","origin":"CRF","derivation":"SDTM Target: CMCLAS","codelist":null,"key_seq":null,"core":"Perm","version":"2.3","status":"ACTIVE","effective_from":"2026-03-27T00:00:00.000Z","updated_at":"2026-03-27T00:00:00.000Z","updated_by":"CDISC CDASH Team","change_reason":"CDASHIG v2.3 Release"},{"study_id":"GLOBAL","standard":"CDASH","domain":"CM","name":"CMCLASCD","label":"CM Medication Class Code","type":"Num","length":8,"format":"8.","role":"QUALIFIER","origin":"CRF","derivation":"SDTM Target: CMCLASCD","codelist":null,"key_seq":null,"core":"Perm","version":"2.3","status":"ACTIVE","effective_from":"2026-03-27T00:00:00.000Z","updated_at":"2026-03-27T00:00:00.000Z","updated_by":"CDISC CDASH Team","change_reason":"CDASHIG v2.3 Release"},{"study_id":"GLOBAL","standard":"CDASH","domain":"CM","name":"CMATC1","label":"ATC Level 1 Description","type":"Char","length":200,"format":"","role":"QUALIFIER","origin":"CRF","derivation":"SDTM Target: QVAL · This does not map directly to an SDTMIG variable. This information could be submitted in a SUPPCM dataset as the value of SUPPCM.QVAL where SUPPCM.QNAM=\"CMATC1\" and SUPPCM.QLABEL=\"ATC Level 1 Description\". Sponsors should include an Origin column in the SUPPQ dataset to indicate that the data was \"ASSIGNED\". Refer to the current SDTM and SDTMIG for instructions on placement of non-standard variables (NSVs) in SDTM domains.","codelist":null,"key_seq":null,"core":"Perm","version":"2.3","status":"ACTIVE","effective_from":"2026-03-27T00:00:00.000Z","updated_at":"2026-03-27T00:00:00.000Z","updated_by":"CDISC CDASH Team","change_reason":"CDASHIG v2.3 Release"},{"study_id":"GLOBAL","standard":"CDASH","domain":"CM","name":"CMATC1CD","label":"ATC Level 1 Code","type":"Num","length":8,"format":"8.","role":"QUALIFIER","origin":"CRF","derivation":"SDTM Target: QVAL · This does not map directly to an SDTMIG variable. This information could be submitted in a SUPPCM dataset as the value of SUPPCM.QVAL where SUPPCM.QNAM =\"CMATC1CD\" and SUPPCM.QLABEL=\"ATC Level 1 Code\". Sponsors should include an Origin column in the SUPPQ dataset to indicate that the data was \"ASSIGNED\".","codelist":null,"key_seq":null,"core":"Perm","version":"2.3","status":"ACTIVE","effective_from":"2026-03-27T00:00:00.000Z","updated_at":"2026-03-27T00:00:00.000Z","updated_by":"CDISC CDASH Team","change_reason":"CDASHIG v2.3 Release"},{"study_id":"GLOBAL","standard":"CDASH","domain":"CM","name":"CMATC2","label":"ATC Level 2 Description","type":"Char","length":200,"format":"","role":"QUALIFIER","origin":"CRF","derivation":"SDTM Target: QVAL · This does not map directly to an SDTMIG variable. This information could be submitted in a SUPPCM dataset as the value of SUPPCM.QVAL where SUPPCM.QNAM=\"CMATC2\" and SUPPCM.QLABEL=\"ATC Level 2 Description\". Sponsors should include an Origin column in the SUPPQ dataset to indicate that the data was \"ASSIGNED\". Refer to the current SDTM and SDTMIG for instructions on placement of NSVs in SDTM domains.","codelist":null,"key_seq":null,"core":"Perm","version":"2.3","status":"ACTIVE","effective_from":"2026-03-27T00:00:00.000Z","updated_at":"2026-03-27T00:00:00.000Z","updated_by":"CDISC CDASH Team","change_reason":"CDASHIG v2.3 Release"},{"study_id":"GLOBAL","standard":"CDASH","domain":"CM","name":"CMATC2CD","label":"ATC Level 2 Code","type":"Num","length":8,"format":"8.","role":"QUALIFIER","origin":"CRF","derivation":"SDTM Target: QVAL · This does not map directly to an SDTMIG variable. This information could be submitted in a SUPPCM dataset as the value of SUPPCM.QVAL where SUPPCM.QNAM=\"CMATC2CD\" and SUPPCM.QLABEL=\"ATC Level 2 Code\". Sponsors should include an Origin column in the SUPPQ dataset to indicate that the data was \"ASSIGNED\".","codelist":null,"key_seq":null,"core":"Perm","version":"2.3","status":"ACTIVE","effective_from":"2026-03-27T00:00:00.000Z","updated_at":"2026-03-27T00:00:00.000Z","updated_by":"CDISC CDASH Team","change_reason":"CDASHIG v2.3 Release"},{"study_id":"GLOBAL","standard":"CDASH","domain":"CM","name":"CMATC3","label":"ATC Level 3 Description","type":"Char","length":200,"format":"","role":"QUALIFIER","origin":"CRF","derivation":"SDTM Target: QVAL · This does not map directly to an SDTMIG variable. This information could be submitted in a SUPPCM dataset as the value of SUPPCM.QVAL where SUPPCM.QNAM=\"CMATC3\" and SUPPCM.QLABEL=\"ATC Level 3 Description\". Sponsors should include an Origin column in the SUPPQ dataset to indicate that the data was \"ASSIGNED\". Refer to the current SDTM and SDTMIG for instructions on placement of NSVs in SDTM domains.","codelist":null,"key_seq":null,"core":"Perm","version":"2.3","status":"ACTIVE","effective_from":"2026-03-27T00:00:00.000Z","updated_at":"2026-03-27T00:00:00.000Z","updated_by":"CDISC CDASH Team","change_reason":"CDASHIG v2.3 Release"},{"study_id":"GLOBAL","standard":"CDASH","domain":"CM","name":"CMATC3CD","label":"ATC Level 3 Code","type":"Num","length":8,"format":"8.","role":"QUALIFIER","origin":"CRF","derivation":"SDTM Target: QVAL · This does not map directly to an SDTMIG variable. This information could be submitted in a SUPPCM dataset as the value of SUPPCM.QVAL where SUPPCM.QNAM=\"CMATC3CD\" and SUPPCM.QLABEL=\"ATC Level 3 Code\". Sponsors should include an Origin column in the SUPPQ dataset to indicate that the data was \"ASSIGNED\".","codelist":null,"key_seq":null,"core":"Perm","version":"2.3","status":"ACTIVE","effective_from":"2026-03-27T00:00:00.000Z","updated_at":"2026-03-27T00:00:00.000Z","updated_by":"CDISC CDASH Team","change_reason":"CDASHIG v2.3 Release"},{"study_id":"GLOBAL","standard":"CDASH","domain":"CM","name":"CMATC4","label":"ATC Level 4 Description","type":"Char","length":200,"format":"","role":"QUALIFIER","origin":"CRF","derivation":"SDTM Target: QVAL · This does not map directly to an SDTMIG variable. This information could be submitted in a SUPPCM dataset as the value of SUPPCM.QVAL where SUPPCM.QNAM=\"CMATC4\" and SUPPCM.QLABEL=\"ATC Level 4 Description\". Sponsors should include an Origin column in the SUPPQ dataset to indicate that the data was \"ASSIGNED\". Refer to the current SDTM and SDTMIG for instructions on placement of NSVs in SDTM domains.","codelist":null,"key_seq":null,"core":"Perm","version":"2.3","status":"ACTIVE","effective_from":"2026-03-27T00:00:00.000Z","updated_at":"2026-03-27T00:00:00.000Z","updated_by":"CDISC CDASH Team","change_reason":"CDASHIG v2.3 Release"},{"study_id":"GLOBAL","standard":"CDASH","domain":"CM","name":"CMATC4CD","label":"ATC Level 4 Code","type":"Num","length":8,"format":"8.","role":"QUALIFIER","origin":"CRF","derivation":"SDTM Target: QVAL · This does not map directly to an SDTMIG variable. This information could be submitted in a SUPPCM dataset as the value of SUPPCM.QVAL where SUPPCM.QNAM=\"CMATC4CD\" and SUPPCM.QLABEL=\"ATC Level 4 Code\". Sponsors should include an Origin column in the SUPPQ dataset to indicate that the data was \"ASSIGNED\".","codelist":null,"key_seq":null,"core":"Perm","version":"2.3","status":"ACTIVE","effective_from":"2026-03-27T00:00:00.000Z","updated_at":"2026-03-27T00:00:00.000Z","updated_by":"CDISC CDASH Team","change_reason":"CDASHIG v2.3 Release"},{"study_id":"GLOBAL","standard":"CDASH","domain":"CM","name":"CMATC5","label":"ATC Level 5 Description","type":"Char","length":200,"format":"","role":"QUALIFIER","origin":"CRF","derivation":"SDTM Target: QVAL · This does not map directly to an SDTMIG variable. This information could be submitted in a SUPPCM dataset as the value of SUPPCM.QVAL where SUPPCM.QNAM=\"CMATC5\" and SUPPCM.QLABEL=\"ATC Level 5 Description\". Sponsors should include an Origin column in the SUPPQ dataset to indicate that the data was \"ASSIGNED\". Refer to the current SDTM and SDTMIG for instructions on placement of NSVs in SDTM domains.","codelist":null,"key_seq":null,"core":"Perm","version":"2.3","status":"ACTIVE","effective_from":"2026-03-27T00:00:00.000Z","updated_at":"2026-03-27T00:00:00.000Z","updated_by":"CDISC CDASH Team","change_reason":"CDASHIG v2.3 Release"},{"study_id":"GLOBAL","standard":"CDASH","domain":"CM","name":"CMATC5CD","label":"ATC Level 5 Code","type":"Num","length":8,"format":"8.","role":"QUALIFIER","origin":"CRF","derivation":"SDTM Target: QVAL · This does not map directly to an SDTMIG variable. This information could be submitted in a SUPPCM dataset as the value of SUPPCM.QVAL where SUPPCM.QNAM=\"CMATC5CD\" and SUPPCM.QLABEL=\"ATC Level 5 Code\". Sponsors should include an Origin column in the SUPPQ dataset to indicate that the data was \"ASSIGNED\".","codelist":null,"key_seq":null,"core":"Perm","version":"2.3","status":"ACTIVE","effective_from":"2026-03-27T00:00:00.000Z","updated_at":"2026-03-27T00:00:00.000Z","updated_by":"CDISC CDASH Team","change_reason":"CDASHIG v2.3 Release"},{"study_id":"GLOBAL","standard":"CDASH","domain":"EC","name":"STUDYID","label":"Study Identifier","type":"Char","length":200,"format":"","role":"IDENTIFIER","origin":"CRF","derivation":"SDTM Target: STUDYID","codelist":null,"key_seq":1,"core":"Req","version":"2.3","status":"ACTIVE","effective_from":"2026-03-27T00:00:00.000Z","updated_at":"2026-03-27T00:00:00.000Z","updated_by":"CDISC CDASH Team","change_reason":"CDASHIG v2.3 Release"},{"study_id":"GLOBAL","standard":"CDASH","domain":"EC","name":"SITEID","label":"Study Site Identifier","type":"Char","length":200,"format":"","role":"IDENTIFIER","origin":"CRF","derivation":"SDTM Target: SITEID","codelist":null,"key_seq":2,"core":"Req","version":"2.3","status":"ACTIVE","effective_from":"2026-03-27T00:00:00.000Z","updated_at":"2026-03-27T00:00:00.000Z","updated_by":"CDISC CDASH Team","change_reason":"CDASHIG v2.3 Release"},{"study_id":"GLOBAL","standard":"CDASH","domain":"EC","name":"SUBJID","label":"Subject Identifier for the Study","type":"Char","length":200,"format":"","role":"IDENTIFIER","origin":"CRF","derivation":"SDTM Target: SUBJID","codelist":null,"key_seq":3,"core":"Req","version":"2.3","status":"ACTIVE","effective_from":"2026-03-27T00:00:00.000Z","updated_at":"2026-03-27T00:00:00.000Z","updated_by":"CDISC CDASH Team","change_reason":"CDASHIG v2.3 Release"},{"study_id":"GLOBAL","standard":"CDASH","domain":"EC","name":"EPOCH","label":"Epoch","type":"Char","length":200,"format":"","role":"QUALIFIER","origin":"CRF","derivation":"SDTM Target: EPOCH","codelist":"EPOCH","key_seq":null,"core":"R/C","version":"2.3","status":"ACTIVE","effective_from":"2026-03-27T00:00:00.000Z","updated_at":"2026-03-27T00:00:00.000Z","updated_by":"CDISC CDASH Team","change_reason":"CDASHIG v2.3 Release"},{"study_id":"GLOBAL","standard":"CDASH","domain":"EC","name":"ECYN","label":"Any Study Treatment Taken","type":"Char","length":200,"format":"","role":"QUALIFIER","origin":"CRF","derivation":" · Does not map to an SDTMIG variable. The SDTM annotated CRF indicates that this field is NOT SUBMITTED.","codelist":"NY","key_seq":null,"core":"Perm","version":"2.3","status":"ACTIVE","effective_from":"2026-03-27T00:00:00.000Z","updated_at":"2026-03-27T00:00:00.000Z","updated_by":"CDISC CDASH Team","change_reason":"CDASHIG v2.3 Release"},{"study_id":"GLOBAL","standard":"CDASH","domain":"EC","name":"ECCAT","label":"Category of Treatment","type":"Char","length":200,"format":"","role":"QUALIFIER","origin":"CRF","derivation":"SDTM Target: ECCAT","codelist":null,"key_seq":null,"core":"Perm","version":"2.3","status":"ACTIVE","effective_from":"2026-03-27T00:00:00.000Z","updated_at":"2026-03-27T00:00:00.000Z","updated_by":"CDISC CDASH Team","change_reason":"CDASHIG v2.3 Release"},{"study_id":"GLOBAL","standard":"CDASH","domain":"EC","name":"ECSCAT","label":"Subcategory of Treatment","type":"Char","length":200,"format":"","role":"QUALIFIER","origin":"CRF","derivation":"SDTM Target: ECSCAT","codelist":null,"key_seq":null,"core":"Perm","version":"2.3","status":"ACTIVE","effective_from":"2026-03-27T00:00:00.000Z","updated_at":"2026-03-27T00:00:00.000Z","updated_by":"CDISC CDASH Team","change_reason":"CDASHIG v2.3 Release"},{"study_id":"GLOBAL","standard":"CDASH","domain":"EC","name":"ECTRT","label":"Treatment","type":"Char","length":200,"format":"","role":"TOPIC","origin":"CRF","derivation":"SDTM Target: ECTRT","codelist":null,"key_seq":null,"core":"R/C","version":"2.3","status":"ACTIVE","effective_from":"2026-03-27T00:00:00.000Z","updated_at":"2026-03-27T00:00:00.000Z","updated_by":"CDISC CDASH Team","change_reason":"CDASHIG v2.3 Release"},{"study_id":"GLOBAL","standard":"CDASH","domain":"EC","name":"ECPRESP","label":"Exposure as Collected Prespecified","type":"Char","length":200,"format":"","role":"QUALIFIER","origin":"CRF","derivation":"SDTM Target: ECPRESP","codelist":"NY","key_seq":null,"core":"Perm","version":"2.3","status":"ACTIVE","effective_from":"2026-03-27T00:00:00.000Z","updated_at":"2026-03-27T00:00:00.000Z","updated_by":"CDISC CDASH Team","change_reason":"CDASHIG v2.3 Release"},{"study_id":"GLOBAL","standard":"CDASH","domain":"EC","name":"ECOCCUR","label":"Exposure as Collected Occurrence","type":"Char","length":200,"format":"","role":"QUALIFIER","origin":"CRF","derivation":"SDTM Target: ECOCCUR","codelist":"NY","key_seq":null,"core":"Perm","version":"2.3","status":"ACTIVE","effective_from":"2026-03-27T00:00:00.000Z","updated_at":"2026-03-27T00:00:00.000Z","updated_by":"CDISC CDASH Team","change_reason":"CDASHIG v2.3 Release"},{"study_id":"GLOBAL","standard":"CDASH","domain":"EC","name":"ECREASOC","label":"Exposure Reason for Occur Value","type":"Char","length":200,"format":"","role":"QUALIFIER","origin":"CRF","derivation":"SDTM Target: QVAL · This information could be submitted in a SUPPEC dataset as the value of SUPPEC.QVAL where SUPPEC.QNAM=\"ECREASOC\" and SUPPEC.QLABEL =\"Reason for Occur Value\". Refer to the current SDTM and SDTMIG for instructions on placement of non-standard variables (NSVs) in SDTM domains.","codelist":null,"key_seq":null,"core":"Perm","version":"2.3","status":"ACTIVE","effective_from":"2026-03-27T00:00:00.000Z","updated_at":"2026-03-27T00:00:00.000Z","updated_by":"CDISC CDASH Team","change_reason":"CDASHIG v2.3 Release"},{"study_id":"GLOBAL","standard":"CDASH","domain":"EC","name":"ECMOOD","label":"Exposure as Collected Mood","type":"Char","length":200,"format":"","role":"QUALIFIER","origin":"CRF","derivation":"SDTM Target: ECMOOD","codelist":"BRDGMOOD","key_seq":null,"core":"Perm","version":"2.3","status":"ACTIVE","effective_from":"2026-03-27T00:00:00.000Z","updated_at":"2026-03-27T00:00:00.000Z","updated_by":"CDISC CDASH Team","change_reason":"CDASHIG v2.3 Release"},{"study_id":"GLOBAL","standard":"CDASH","domain":"EC","name":"ECREFID","label":"Exposure as Collected Reference ID","type":"Char","length":200,"format":"","role":"QUALIFIER","origin":"CRF","derivation":"SDTM Target: ECREFID","codelist":null,"key_seq":null,"core":"Perm","version":"2.3","status":"ACTIVE","effective_from":"2026-03-27T00:00:00.000Z","updated_at":"2026-03-27T00:00:00.000Z","updated_by":"CDISC CDASH Team","change_reason":"CDASHIG v2.3 Release"},{"study_id":"GLOBAL","standard":"CDASH","domain":"EC","name":"ECLOT","label":"Lot Number","type":"Char","length":200,"format":"","role":"QUALIFIER","origin":"CRF","derivation":"SDTM Target: ECLOT","codelist":null,"key_seq":null,"core":"R/C","version":"2.3","status":"ACTIVE","effective_from":"2026-03-27T00:00:00.000Z","updated_at":"2026-03-27T00:00:00.000Z","updated_by":"CDISC CDASH Team","change_reason":"CDASHIG v2.3 Release"},{"study_id":"GLOBAL","standard":"CDASH","domain":"EC","name":"ECFAST","label":"Exposure as Collected Fasting Status","type":"Char","length":200,"format":"","role":"QUALIFIER","origin":"CRF","derivation":"SDTM Target: ECFAST","codelist":"NY","key_seq":null,"core":"Perm","version":"2.3","status":"ACTIVE","effective_from":"2026-03-27T00:00:00.000Z","updated_at":"2026-03-27T00:00:00.000Z","updated_by":"CDISC CDASH Team","change_reason":"CDASHIG v2.3 Release"},{"study_id":"GLOBAL","standard":"CDASH","domain":"EC","name":"ECDOSFRM","label":"Exposure as Collected Dose Form","type":"Char","length":200,"format":"","role":"QUALIFIER","origin":"CRF","derivation":"SDTM Target: ECDOSFRM","codelist":"FRM; EXDOSFRM","key_seq":null,"core":"R/C","version":"2.3","status":"ACTIVE","effective_from":"2026-03-27T00:00:00.000Z","updated_at":"2026-03-27T00:00:00.000Z","updated_by":"CDISC CDASH Team","change_reason":"CDASHIG v2.3 Release"},{"study_id":"GLOBAL","standard":"CDASH","domain":"EC","name":"ECSTDAT","label":"Exposure as Collected Start Date","type":"Char","length":200,"format":"","role":"QUALIFIER","origin":"CRF","derivation":"SDTM Target: ECSTDTC · This does not map directly to an SDTMIG variable. For the SDTM submission dataset, concatenate all collected CDASH START DATE and TIME components and populate the SDTMIG variable ECSTDTC in ISO 8601 format.","codelist":null,"key_seq":null,"core":"Req","version":"2.3","status":"ACTIVE","effective_from":"2026-03-27T00:00:00.000Z","updated_at":"2026-03-27T00:00:00.000Z","updated_by":"CDISC CDASH Team","change_reason":"CDASHIG v2.3 Release"},{"study_id":"GLOBAL","standard":"CDASH","domain":"EC","name":"ECSTTIM","label":"Exposure as Collected Start Time","type":"Char","length":200,"format":"","role":"TIMING","origin":"CRF","derivation":"SDTM Target: ECSTDTC · This does not map directly to an SDTMIG variable. For the SDTM submission dataset, concatenate all collected CDASH START DATE and TIME components and populate the SDTMIG variable ECSTDTC in ISO 8601 format.","codelist":null,"key_seq":null,"core":"R/C","version":"2.3","status":"ACTIVE","effective_from":"2026-03-27T00:00:00.000Z","updated_at":"2026-03-27T00:00:00.000Z","updated_by":"CDISC CDASH Team","change_reason":"CDASHIG v2.3 Release"},{"study_id":"GLOBAL","standard":"CDASH","domain":"EC","name":"ECENDAT","label":"Exposure as Collected End Date","type":"Char","length":200,"format":"","role":"QUALIFIER","origin":"CRF","derivation":"SDTM Target: ECENDTC · This does not map directly to an SDTMIG variable. For the SDTM submission dataset, concatenate all collected CDASH END DATE and TIME components and populate the SDTMIG variable ECENDTC in ISO 8601 format.","codelist":null,"key_seq":null,"core":"R/C","version":"2.3","status":"ACTIVE","effective_from":"2026-03-27T00:00:00.000Z","updated_at":"2026-03-27T00:00:00.000Z","updated_by":"CDISC CDASH Team","change_reason":"CDASHIG v2.3 Release"},{"study_id":"GLOBAL","standard":"CDASH","domain":"EC","name":"ECENTIM","label":"Exposure as Collected End Time","type":"Char","length":200,"format":"","role":"TIMING","origin":"CRF","derivation":"SDTM Target: ECENDTC · This does not map directly to an SDTMIG variable. For the SDTM submission dataset, concatenate all collected CDASH END DATE and TIME components and populate the SDTMIG variable ECENDTC in ISO 8601 format.","codelist":null,"key_seq":null,"core":"R/C","version":"2.3","status":"ACTIVE","effective_from":"2026-03-27T00:00:00.000Z","updated_at":"2026-03-27T00:00:00.000Z","updated_by":"CDISC CDASH Team","change_reason":"CDASHIG v2.3 Release"},{"study_id":"GLOBAL","standard":"CDASH","domain":"EC","name":"ECDSTXT","label":"Exposure as Collected Dose Description","type":"Char","length":200,"format":"","role":"QUALIFIER","origin":"CRF","derivation":"SDTM Target: ECDOSTXT; ECDOSE · This does not map directly to an SDTMIG variable. The data collected in this dose text-format field should be mapped to either ECDOSE if numeric or ECDOSTXT if text.","codelist":null,"key_seq":null,"core":"R/C","version":"2.3","status":"ACTIVE","effective_from":"2026-03-27T00:00:00.000Z","updated_at":"2026-03-27T00:00:00.000Z","updated_by":"CDISC CDASH Team","change_reason":"CDASHIG v2.3 Release"},{"study_id":"GLOBAL","standard":"CDASH","domain":"EC","name":"ECDOSU","label":"Exposure as Collected Dose Units","type":"Char","length":200,"format":"","role":"QUALIFIER","origin":"CRF","derivation":"SDTM Target: ECDOSU","codelist":"UNIT; EXDOSU","key_seq":null,"core":"R/C","version":"2.3","status":"ACTIVE","effective_from":"2026-03-27T00:00:00.000Z","updated_at":"2026-03-27T00:00:00.000Z","updated_by":"CDISC CDASH Team","change_reason":"CDASHIG v2.3 Release"},{"study_id":"GLOBAL","standard":"CDASH","domain":"EC","name":"ECDOSFRQ","label":"EC Dosing Frequency per Interval","type":"Char","length":200,"format":"","role":"QUALIFIER","origin":"CRF","derivation":"SDTM Target: ECDOSFRQ","codelist":"FREQ; EXDOSFRQ","key_seq":null,"core":"R/C","version":"2.3","status":"ACTIVE","effective_from":"2026-03-27T00:00:00.000Z","updated_at":"2026-03-27T00:00:00.000Z","updated_by":"CDISC CDASH Team","change_reason":"CDASHIG v2.3 Release"},{"study_id":"GLOBAL","standard":"CDASH","domain":"EC","name":"ECROUTE","label":"EC Route of Administration","type":"Char","length":200,"format":"","role":"QUALIFIER","origin":"CRF","derivation":"SDTM Target: ECROUTE","codelist":"ROUTE; EXROUTE","key_seq":null,"core":"R/C","version":"2.3","status":"ACTIVE","effective_from":"2026-03-27T00:00:00.000Z","updated_at":"2026-03-27T00:00:00.000Z","updated_by":"CDISC CDASH Team","change_reason":"CDASHIG v2.3 Release"},{"study_id":"GLOBAL","standard":"CDASH","domain":"EC","name":"ECDOSRGM","label":"Intended Dose Regimen","type":"Char","length":200,"format":"","role":"QUALIFIER","origin":"CRF","derivation":"SDTM Target: ECDOSRGM","codelist":null,"key_seq":null,"core":"Perm","version":"2.3","status":"ACTIVE","effective_from":"2026-03-27T00:00:00.000Z","updated_at":"2026-03-27T00:00:00.000Z","updated_by":"CDISC CDASH Team","change_reason":"CDASHIG v2.3 Release"},{"study_id":"GLOBAL","standard":"CDASH","domain":"EC","name":"ECDOSADJ","label":"Dose Adjusted","type":"Char","length":200,"format":"","role":"QUALIFIER","origin":"CRF","derivation":" · When ECADJ is collected, does not map to an SDTMIG variable. The SDTM annotated CRF indicates that this field is NOT SUBMITTED. When ECADJ is not collected, the sponsor may submit this variable in SUPPEC.","codelist":"NY","key_seq":null,"core":"Perm","version":"2.3","status":"ACTIVE","effective_from":"2026-03-27T00:00:00.000Z","updated_at":"2026-03-27T00:00:00.000Z","updated_by":"CDISC CDASH Team","change_reason":"CDASHIG v2.3 Release"},{"study_id":"GLOBAL","standard":"CDASH","domain":"EC","name":"ECADJ","label":"Reason for Dose Adjustment","type":"Char","length":200,"format":"","role":"QUALIFIER","origin":"CRF","derivation":"SDTM Target: ECADJ","codelist":null,"key_seq":null,"core":"Perm","version":"2.3","status":"ACTIVE","effective_from":"2026-03-27T00:00:00.000Z","updated_at":"2026-03-27T00:00:00.000Z","updated_by":"CDISC CDASH Team","change_reason":"CDASHIG v2.3 Release"},{"study_id":"GLOBAL","standard":"CDASH","domain":"EC","name":"ECITRPYN","label":"EC Exposure Interrupted","type":"Char","length":200,"format":"","role":"QUALIFIER","origin":"CRF","derivation":" · Does not map to an SDTMIG variable. The SDTM annotated CRF indicates that this field is NOT SUBMITTED..","codelist":"NY","key_seq":null,"core":"Perm","version":"2.3","status":"ACTIVE","effective_from":"2026-03-27T00:00:00.000Z","updated_at":"2026-03-27T00:00:00.000Z","updated_by":"CDISC CDASH Team","change_reason":"CDASHIG v2.3 Release"},{"study_id":"GLOBAL","standard":"CDASH","domain":"EC","name":"ECCINTD","label":"EC Interruption Duration","type":"Char","length":200,"format":"","role":"QUALIFIER","origin":"CRF","derivation":"SDTM Target: QVAL · This does not map directly to an SDTMIG variable. This information could be submitted in a SUPPEC dataset as the value of SUPPEC.QVAL where SUPPEC.QNAM=\"ECITRPD\" and SUPPEC.QLABEL= \"Interruption Duration\". Concatenate the collected treatment interruption duration and the duration unit components and create ECITRPD using ISO 8601 Period format. Refer to the current SDTM and SDTMIG for instructions on placement of NSVs in SDTM domains.","codelist":null,"key_seq":null,"core":"Perm","version":"2.3","status":"ACTIVE","effective_from":"2026-03-27T00:00:00.000Z","updated_at":"2026-03-27T00:00:00.000Z","updated_by":"CDISC CDASH Team","change_reason":"CDASHIG v2.3 Release"},{"study_id":"GLOBAL","standard":"CDASH","domain":"EC","name":"ECCINTDU","label":"EC Interruption Duration Units","type":"Char","length":200,"format":"","role":"QUALIFIER","origin":"CRF","derivation":"SDTM Target: QVAL · This does not map directly to an SDTMIG variable. This information could be submitted in a SUPPEC dataset as the value of SUPPEC.QVAL where SUPPEC.QNAM = \"ECITRPD\" and SUPPEC.QLABEL= \"Interruption Duration\". Concatenate the collected treatment interruption duration and the duration unit components and create ECITRPD using ISO 8601 Period format. Refer to the current SDTM and SDTMIG for instructions on placement of NSVs in SDTM domains.","codelist":"UNIT; EXINTPU","key_seq":null,"core":"Perm","version":"2.3","status":"ACTIVE","effective_from":"2026-03-27T00:00:00.000Z","updated_at":"2026-03-27T00:00:00.000Z","updated_by":"CDISC CDASH Team","change_reason":"CDASHIG v2.3 Release"},{"study_id":"GLOBAL","standard":"CDASH","domain":"EC","name":"ECLOC","label":"EC Location of Dose Administration","type":"Char","length":200,"format":"","role":"QUALIFIER","origin":"CRF","derivation":"SDTM Target: ECLOC","codelist":"LOC","key_seq":null,"core":"Perm","version":"2.3","status":"ACTIVE","effective_from":"2026-03-27T00:00:00.000Z","updated_at":"2026-03-27T00:00:00.000Z","updated_by":"CDISC CDASH Team","change_reason":"CDASHIG v2.3 Release"},{"study_id":"GLOBAL","standard":"CDASH","domain":"EC","name":"ECLAT","label":"Exposure as Collected Laterality","type":"Char","length":200,"format":"","role":"QUALIFIER","origin":"CRF","derivation":"SDTM Target: ECLAT","codelist":"LAT","key_seq":null,"core":"Perm","version":"2.3","status":"ACTIVE","effective_from":"2026-03-27T00:00:00.000Z","updated_at":"2026-03-27T00:00:00.000Z","updated_by":"CDISC CDASH Team","change_reason":"CDASHIG v2.3 Release"},{"study_id":"GLOBAL","standard":"CDASH","domain":"EC","name":"ECDIR","label":"Exposure as Collected Directionality","type":"Char","length":200,"format":"","role":"QUALIFIER","origin":"CRF","derivation":"SDTM Target: ECDIR","codelist":"DIR","key_seq":null,"core":"Perm","version":"2.3","status":"ACTIVE","effective_from":"2026-03-27T00:00:00.000Z","updated_at":"2026-03-27T00:00:00.000Z","updated_by":"CDISC CDASH Team","change_reason":"CDASHIG v2.3 Release"},{"study_id":"GLOBAL","standard":"CDASH","domain":"EC","name":"ECVAMT","label":"EC Vehicle Amount","type":"Num","length":8,"format":"8.","role":"QUALIFIER","origin":"CRF","derivation":"","codelist":null,"key_seq":null,"core":"Perm","version":"2.3","status":"ACTIVE","effective_from":"2026-03-27T00:00:00.000Z","updated_at":"2026-03-27T00:00:00.000Z","updated_by":"CDISC CDASH Team","change_reason":"CDASHIG v2.3 Release"},{"study_id":"GLOBAL","standard":"CDASH","domain":"EC","name":"ECVAMTU","label":"EC Vehicle Amount Units","type":"Char","length":200,"format":"","role":"QUALIFIER","origin":"CRF","derivation":"","codelist":"UNIT","key_seq":null,"core":"Perm","version":"2.3","status":"ACTIVE","effective_from":"2026-03-27T00:00:00.000Z","updated_at":"2026-03-27T00:00:00.000Z","updated_by":"CDISC CDASH Team","change_reason":"CDASHIG v2.3 Release"},{"study_id":"GLOBAL","standard":"CDASH","domain":"EC","name":"ECFLRT","label":"Exposure as Collected Infusion Rate","type":"Num","length":8,"format":"8.","role":"QUALIFIER","origin":"CRF","derivation":"SDTM Target: QVAL · This does not map directly to an SDTMIG variable. This information could be submitted in a SUPPEC dataset as the value of SUPPEC.QVAL where SUPPEC.QNAM=\"ECFLRT\" and SUPPEC.QLABEL= \"Infusion Rate\". Refer to the current SDTM and SDTMIG for instructions on placement of NSVs in SDTM domains.","codelist":null,"key_seq":null,"core":"Perm","version":"2.3","status":"ACTIVE","effective_from":"2026-03-27T00:00:00.000Z","updated_at":"2026-03-27T00:00:00.000Z","updated_by":"CDISC CDASH Team","change_reason":"CDASHIG v2.3 Release"},{"study_id":"GLOBAL","standard":"CDASH","domain":"EC","name":"ECFLRTU","label":"Exposure as Collected Infusion Rate Unit","type":"Char","length":200,"format":"","role":"QUALIFIER","origin":"CRF","derivation":"SDTM Target: QVAL · This does not map directly to an SDTMIG variable. This information could be submitted in a SUPPEC dataset as the value of SUPPEC.QVAL where SUPPEC.QNAM=\"ECFLRTU\" and SUPPEC.QLABEL= \"Infusion Rate Unit\". Refer to the current SDTM and SDTMIG for instructions on placement of NSVs in SDTM domains.","codelist":"UNIT; EXFLRTU","key_seq":null,"core":"Perm","version":"2.3","status":"ACTIVE","effective_from":"2026-03-27T00:00:00.000Z","updated_at":"2026-03-27T00:00:00.000Z","updated_by":"CDISC CDASH Team","change_reason":"CDASHIG v2.3 Release"},{"study_id":"GLOBAL","standard":"CDASH","domain":"EC","name":"ECTPT","label":"EC Planned Time Point Name","type":"Char","length":200,"format":"","role":"QUALIFIER","origin":"CRF","derivation":"SDTM Target: ECTPT","codelist":null,"key_seq":null,"core":"R/C","version":"2.3","status":"ACTIVE","effective_from":"2026-03-27T00:00:00.000Z","updated_at":"2026-03-27T00:00:00.000Z","updated_by":"CDISC CDASH Team","change_reason":"CDASHIG v2.3 Release"},{"study_id":"GLOBAL","standard":"CDASH","domain":"EC","name":"ECTRTCMP","label":"Completed Treatment","type":"Char","length":200,"format":"","role":"QUALIFIER","origin":"CRF","derivation":"SDTM Target: QVAL · This does not map directly to an SDTMIG variable. This information could be submitted in a SUPPEC dataset as the value of SUPPEC.QVAL where SUPPEC.QNAM = \"ECTRTCMP\" and SUPPEC.QLABEL =\"Completed Treatment\". Refer to the current SDTM and SDTMIG for instructions on placement of NSVs in SDTM domains.","codelist":"NY","key_seq":null,"core":"Perm","version":"2.3","status":"ACTIVE","effective_from":"2026-03-27T00:00:00.000Z","updated_at":"2026-03-27T00:00:00.000Z","updated_by":"CDISC CDASH Team","change_reason":"CDASHIG v2.3 Release"},{"study_id":"GLOBAL","standard":"CDASH","domain":"EX","name":"STUDYID","label":"Study Identifier","type":"Char","length":200,"format":"","role":"IDENTIFIER","origin":"CRF","derivation":"SDTM Target: STUDYID","codelist":null,"key_seq":1,"core":"Req","version":"2.3","status":"ACTIVE","effective_from":"2026-03-27T00:00:00.000Z","updated_at":"2026-03-27T00:00:00.000Z","updated_by":"CDISC CDASH Team","change_reason":"CDASHIG v2.3 Release"},{"study_id":"GLOBAL","standard":"CDASH","domain":"EX","name":"SITEID","label":"Study Site Identifier","type":"Char","length":200,"format":"","role":"IDENTIFIER","origin":"CRF","derivation":"SDTM Target: SITEID","codelist":null,"key_seq":2,"core":"Req","version":"2.3","status":"ACTIVE","effective_from":"2026-03-27T00:00:00.000Z","updated_at":"2026-03-27T00:00:00.000Z","updated_by":"CDISC CDASH Team","change_reason":"CDASHIG v2.3 Release"},{"study_id":"GLOBAL","standard":"CDASH","domain":"EX","name":"SUBJID","label":"Subject Identifier for the Study","type":"Char","length":200,"format":"","role":"IDENTIFIER","origin":"CRF","derivation":"SDTM Target: SUBJID","codelist":null,"key_seq":3,"core":"Req","version":"2.3","status":"ACTIVE","effective_from":"2026-03-27T00:00:00.000Z","updated_at":"2026-03-27T00:00:00.000Z","updated_by":"CDISC CDASH Team","change_reason":"CDASHIG v2.3 Release"},{"study_id":"GLOBAL","standard":"CDASH","domain":"EX","name":"EPOCH","label":"Epoch","type":"Char","length":200,"format":"","role":"QUALIFIER","origin":"CRF","derivation":"SDTM Target: EPOCH","codelist":"EPOCH","key_seq":null,"core":"R/C","version":"2.3","status":"ACTIVE","effective_from":"2026-03-27T00:00:00.000Z","updated_at":"2026-03-27T00:00:00.000Z","updated_by":"CDISC CDASH Team","change_reason":"CDASHIG v2.3 Release"},{"study_id":"GLOBAL","standard":"CDASH","domain":"EX","name":"EXYN","label":"Any Study Treatment Taken","type":"Char","length":200,"format":"","role":"QUALIFIER","origin":"CRF","derivation":" · Does not map to an SDTMIG variable. The SDTM annotated CRF indicates that this field is NOT SUBMITTED.","codelist":"NY","key_seq":null,"core":"Perm","version":"2.3","status":"ACTIVE","effective_from":"2026-03-27T00:00:00.000Z","updated_at":"2026-03-27T00:00:00.000Z","updated_by":"CDISC CDASH Team","change_reason":"CDASHIG v2.3 Release"},{"study_id":"GLOBAL","standard":"CDASH","domain":"EX","name":"EXCAT","label":"Category of Treatment","type":"Char","length":200,"format":"","role":"QUALIFIER","origin":"CRF","derivation":"SDTM Target: EXCAT","codelist":null,"key_seq":null,"core":"Perm","version":"2.3","status":"ACTIVE","effective_from":"2026-03-27T00:00:00.000Z","updated_at":"2026-03-27T00:00:00.000Z","updated_by":"CDISC CDASH Team","change_reason":"CDASHIG v2.3 Release"},{"study_id":"GLOBAL","standard":"CDASH","domain":"EX","name":"EXSCAT","label":"Subcategory of Treatment","type":"Char","length":200,"format":"","role":"QUALIFIER","origin":"CRF","derivation":"SDTM Target: EXSCAT","codelist":null,"key_seq":null,"core":"Perm","version":"2.3","status":"ACTIVE","effective_from":"2026-03-27T00:00:00.000Z","updated_at":"2026-03-27T00:00:00.000Z","updated_by":"CDISC CDASH Team","change_reason":"CDASHIG v2.3 Release"},{"study_id":"GLOBAL","standard":"CDASH","domain":"EX","name":"EXTRT","label":"Name of Treatment","type":"Char","length":200,"format":"","role":"TOPIC","origin":"CRF","derivation":"SDTM Target: EXTRT","codelist":null,"key_seq":null,"core":"R/C","version":"2.3","status":"ACTIVE","effective_from":"2026-03-27T00:00:00.000Z","updated_at":"2026-03-27T00:00:00.000Z","updated_by":"CDISC CDASH Team","change_reason":"CDASHIG v2.3 Release"},{"study_id":"GLOBAL","standard":"CDASH","domain":"EX","name":"EXREFID","label":"Exposure Reference ID","type":"Char","length":200,"format":"","role":"QUALIFIER","origin":"CRF","derivation":"SDTM Target: EXREFID","codelist":null,"key_seq":null,"core":"R/C","version":"2.3","status":"ACTIVE","effective_from":"2026-03-27T00:00:00.000Z","updated_at":"2026-03-27T00:00:00.000Z","updated_by":"CDISC CDASH Team","change_reason":"CDASHIG v2.3 Release"},{"study_id":"GLOBAL","standard":"CDASH","domain":"EX","name":"EXLOT","label":"Lot Number","type":"Char","length":200,"format":"","role":"QUALIFIER","origin":"CRF","derivation":"SDTM Target: EXLOT","codelist":null,"key_seq":null,"core":"R/C","version":"2.3","status":"ACTIVE","effective_from":"2026-03-27T00:00:00.000Z","updated_at":"2026-03-27T00:00:00.000Z","updated_by":"CDISC CDASH Team","change_reason":"CDASHIG v2.3 Release"},{"study_id":"GLOBAL","standard":"CDASH","domain":"EX","name":"EXFAST","label":"Exposure Fasting Status","type":"Char","length":200,"format":"","role":"QUALIFIER","origin":"CRF","derivation":"SDTM Target: EXFAST","codelist":"NY","key_seq":null,"core":"Perm","version":"2.3","status":"ACTIVE","effective_from":"2026-03-27T00:00:00.000Z","updated_at":"2026-03-27T00:00:00.000Z","updated_by":"CDISC CDASH Team","change_reason":"CDASHIG v2.3 Release"},{"study_id":"GLOBAL","standard":"CDASH","domain":"EX","name":"EXDOSFRM","label":"Exposure Dose Form","type":"Char","length":200,"format":"","role":"QUALIFIER","origin":"CRF","derivation":"SDTM Target: EXDOSFRM","codelist":"FRM; EXDOSFRM","key_seq":null,"core":"R/C","version":"2.3","status":"ACTIVE","effective_from":"2026-03-27T00:00:00.000Z","updated_at":"2026-03-27T00:00:00.000Z","updated_by":"CDISC CDASH Team","change_reason":"CDASHIG v2.3 Release"},{"study_id":"GLOBAL","standard":"CDASH","domain":"EX","name":"EXSTDAT","label":"Exposure Start Date","type":"Char","length":200,"format":"","role":"QUALIFIER","origin":"CRF","derivation":"SDTM Target: EXSTDTC · This does not map directly to an SDTMIG variable. For the SDTM submission dataset, concatenate all collected CDASH START DATE and TIME components and populate the SDTMIG variable EXSTDTC in ISO 8601 format.","codelist":null,"key_seq":null,"core":"Req","version":"2.3","status":"ACTIVE","effective_from":"2026-03-27T00:00:00.000Z","updated_at":"2026-03-27T00:00:00.000Z","updated_by":"CDISC CDASH Team","change_reason":"CDASHIG v2.3 Release"},{"study_id":"GLOBAL","standard":"CDASH","domain":"EX","name":"EXSTTIM","label":"Exposure Start Time","type":"Char","length":200,"format":"","role":"TIMING","origin":"CRF","derivation":"SDTM Target: EXSTDTC · This does not map directly to an SDTMIG variable. For the SDTM submission dataset, concatenate all collected CDASH START DATE and TIME components and populate the SDTMIG variable EXSTDTC in ISO 8601 format.","codelist":null,"key_seq":null,"core":"R/C","version":"2.3","status":"ACTIVE","effective_from":"2026-03-27T00:00:00.000Z","updated_at":"2026-03-27T00:00:00.000Z","updated_by":"CDISC CDASH Team","change_reason":"CDASHIG v2.3 Release"},{"study_id":"GLOBAL","standard":"CDASH","domain":"EX","name":"EXENDAT","label":"Exposure End Date","type":"Char","length":200,"format":"","role":"QUALIFIER","origin":"CRF","derivation":"SDTM Target: EXENDTC · This does not map directly to an SDTMIG variable. For the SDTM submission dataset, concatenate all collected CDASH END DATE and TIME components and populate the SDTMIG variable EXENDTC in ISO 8601 format.","codelist":null,"key_seq":null,"core":"R/C","version":"2.3","status":"ACTIVE","effective_from":"2026-03-27T00:00:00.000Z","updated_at":"2026-03-27T00:00:00.000Z","updated_by":"CDISC CDASH Team","change_reason":"CDASHIG v2.3 Release"},{"study_id":"GLOBAL","standard":"CDASH","domain":"EX","name":"EXENTIM","label":"Exposure End Time","type":"Char","length":200,"format":"","role":"TIMING","origin":"CRF","derivation":"SDTM Target: EXENDTC · This does not map directly to an SDTMIG variable. For the SDTM submission dataset, concatenate all collected CDASH END DATE and TIME components and populate the SDTMIG variable EXENDTC in ISO 8601 format.","codelist":null,"key_seq":null,"core":"R/C","version":"2.3","status":"ACTIVE","effective_from":"2026-03-27T00:00:00.000Z","updated_at":"2026-03-27T00:00:00.000Z","updated_by":"CDISC CDASH Team","change_reason":"CDASHIG v2.3 Release"},{"study_id":"GLOBAL","standard":"CDASH","domain":"EX","name":"EXDSTXT","label":"Exposure Dose Description","type":"Char","length":200,"format":"","role":"QUALIFIER","origin":"CRF","derivation":"SDTM Target: EXDOSTXT; EXDOSE · This does not map directly to an SDTMIG variable. Numeric values map to EXDOSE in SDTM. Non-numeric values (e.g., 200-400) map to EXDOSTXT in SDTM.","codelist":null,"key_seq":null,"core":"R/C","version":"2.3","status":"ACTIVE","effective_from":"2026-03-27T00:00:00.000Z","updated_at":"2026-03-27T00:00:00.000Z","updated_by":"CDISC CDASH Team","change_reason":"CDASHIG v2.3 Release"},{"study_id":"GLOBAL","standard":"CDASH","domain":"EX","name":"EXDOSU","label":"Exposure Dose Unit","type":"Char","length":200,"format":"","role":"QUALIFIER","origin":"CRF","derivation":"SDTM Target: EXDOSU","codelist":"UNIT","key_seq":null,"core":"R/C","version":"2.3","status":"ACTIVE","effective_from":"2026-03-27T00:00:00.000Z","updated_at":"2026-03-27T00:00:00.000Z","updated_by":"CDISC CDASH Team","change_reason":"CDASHIG v2.3 Release"},{"study_id":"GLOBAL","standard":"CDASH","domain":"EX","name":"EXDOSFRQ","label":"Exposure Dosing Frequency per Interval","type":"Char","length":200,"format":"","role":"QUALIFIER","origin":"CRF","derivation":"SDTM Target: EXDOSFRQ","codelist":"FREQ","key_seq":null,"core":"R/C","version":"2.3","status":"ACTIVE","effective_from":"2026-03-27T00:00:00.000Z","updated_at":"2026-03-27T00:00:00.000Z","updated_by":"CDISC CDASH Team","change_reason":"CDASHIG v2.3 Release"},{"study_id":"GLOBAL","standard":"CDASH","domain":"EX","name":"EXROUTE","label":"Exposure Route of Administration","type":"Char","length":200,"format":"","role":"QUALIFIER","origin":"CRF","derivation":"SDTM Target: EXROUTE","codelist":"ROUTE; EXROUTE","key_seq":null,"core":"R/C","version":"2.3","status":"ACTIVE","effective_from":"2026-03-27T00:00:00.000Z","updated_at":"2026-03-27T00:00:00.000Z","updated_by":"CDISC CDASH Team","change_reason":"CDASHIG v2.3 Release"},{"study_id":"GLOBAL","standard":"CDASH","domain":"EX","name":"EXDOSRGM","label":"Intended Dose Regimen","type":"Char","length":200,"format":"","role":"QUALIFIER","origin":"CRF","derivation":"SDTM Target: EXDOSRGM","codelist":null,"key_seq":null,"core":"Perm","version":"2.3","status":"ACTIVE","effective_from":"2026-03-27T00:00:00.000Z","updated_at":"2026-03-27T00:00:00.000Z","updated_by":"CDISC CDASH Team","change_reason":"CDASHIG v2.3 Release"},{"study_id":"GLOBAL","standard":"CDASH","domain":"EX","name":"EXDOSADJ","label":"Dose Adjusted","type":"Char","length":200,"format":"","role":"QUALIFIER","origin":"CRF","derivation":" · When EXADJ is collected, does not map to an SDTMIG variable. The SDTM annotated CRF indicates that this field is NOT SUBMITTED. When EXADJ is not collected, the sponsor may submit this variable as a SUPPQ.","codelist":"NY","key_seq":null,"core":"Perm","version":"2.3","status":"ACTIVE","effective_from":"2026-03-27T00:00:00.000Z","updated_at":"2026-03-27T00:00:00.000Z","updated_by":"CDISC CDASH Team","change_reason":"CDASHIG v2.3 Release"},{"study_id":"GLOBAL","standard":"CDASH","domain":"EX","name":"EXADJ","label":"Reason for Dose Adjustment","type":"Char","length":200,"format":"","role":"QUALIFIER","origin":"CRF","derivation":"SDTM Target: EXADJ","codelist":null,"key_seq":null,"core":"Perm","version":"2.3","status":"ACTIVE","effective_from":"2026-03-27T00:00:00.000Z","updated_at":"2026-03-27T00:00:00.000Z","updated_by":"CDISC CDASH Team","change_reason":"CDASHIG v2.3 Release"},{"study_id":"GLOBAL","standard":"CDASH","domain":"EX","name":"EXITRPYN","label":"EX Exposure Interrupted","type":"Char","length":200,"format":"","role":"QUALIFIER","origin":"CRF","derivation":" · Does not map to an SDTMIG variable. The SDTM annotated CRF indicates that this field is NOT SUBMITTED.","codelist":"NY","key_seq":null,"core":"Perm","version":"2.3","status":"ACTIVE","effective_from":"2026-03-27T00:00:00.000Z","updated_at":"2026-03-27T00:00:00.000Z","updated_by":"CDISC CDASH Team","change_reason":"CDASHIG v2.3 Release"},{"study_id":"GLOBAL","standard":"CDASH","domain":"EX","name":"EXCINTD","label":"Exposure Interruption Duration","type":"Char","length":200,"format":"","role":"QUALIFIER","origin":"CRF","derivation":"SDTM Target: QVAL · This does not map directly to an SDTMIG variable. This information could be submitted in a SUPPEX dataset as the value of SUPPEX.QVAL where SUPPEX.QNAM=\"EXITRPD\" and SUPPEX.QLABEL= \"Interruption Duration\". Concatenate the collected treatment interruption duration and the duration unit components and create EXITRPD using ISO 8601 Period format. Refer to the current SDTM and SDTMIG for instructions on placement of NSVs in SDTM domains.","codelist":null,"key_seq":null,"core":"Perm","version":"2.3","status":"ACTIVE","effective_from":"2026-03-27T00:00:00.000Z","updated_at":"2026-03-27T00:00:00.000Z","updated_by":"CDISC CDASH Team","change_reason":"CDASHIG v2.3 Release"},{"study_id":"GLOBAL","standard":"CDASH","domain":"EX","name":"EXCINTDU","label":"Exposure Interruption Duration Units","type":"Char","length":200,"format":"","role":"QUALIFIER","origin":"CRF","derivation":"SDTM Target: QVAL · This does not map directly to an SDTMIG variable. This information could be submitted in a SUPPEX dataset as the value of SUPPEX.QVAL where SUPPEX.QNAM = \"EXITRPD\" and SUPPEX.QLABEL= \"Interruption Duration\". Concatenate the collected treatment interruption duration and the duration unit components and create EXITRPDusing ISO 8601 Period format. Refer to the current SDTM and SDTMIG for instructions on placement of NSVs in SDTM domains.","codelist":"UNIT; EXINTPU","key_seq":null,"core":"Perm","version":"2.3","status":"ACTIVE","effective_from":"2026-03-27T00:00:00.000Z","updated_at":"2026-03-27T00:00:00.000Z","updated_by":"CDISC CDASH Team","change_reason":"CDASHIG v2.3 Release"},{"study_id":"GLOBAL","standard":"CDASH","domain":"EX","name":"EXLOC","label":"Exposure Location of Dose Administration","type":"Char","length":200,"format":"","role":"QUALIFIER","origin":"CRF","derivation":"SDTM Target: EXLOC","codelist":"LOC","key_seq":null,"core":"Perm","version":"2.3","status":"ACTIVE","effective_from":"2026-03-27T00:00:00.000Z","updated_at":"2026-03-27T00:00:00.000Z","updated_by":"CDISC CDASH Team","change_reason":"CDASHIG v2.3 Release"},{"study_id":"GLOBAL","standard":"CDASH","domain":"EX","name":"EXVAMT","label":"Exposure Vehicle Amount","type":"Num","length":8,"format":"8.","role":"QUALIFIER","origin":"CRF","derivation":"","codelist":null,"key_seq":null,"core":"Perm","version":"2.3","status":"ACTIVE","effective_from":"2026-03-27T00:00:00.000Z","updated_at":"2026-03-27T00:00:00.000Z","updated_by":"CDISC CDASH Team","change_reason":"CDASHIG v2.3 Release"},{"study_id":"GLOBAL","standard":"CDASH","domain":"EX","name":"EXVAMTU","label":"Exposure Vehicle Amount Units","type":"Char","length":200,"format":"","role":"QUALIFIER","origin":"CRF","derivation":"","codelist":"UNIT; EXVOLTU","key_seq":null,"core":"Perm","version":"2.3","status":"ACTIVE","effective_from":"2026-03-27T00:00:00.000Z","updated_at":"2026-03-27T00:00:00.000Z","updated_by":"CDISC CDASH Team","change_reason":"CDASHIG v2.3 Release"},{"study_id":"GLOBAL","standard":"CDASH","domain":"EX","name":"EXFLRT","label":"Exposure Infusion Rate","type":"Num","length":8,"format":"8.","role":"QUALIFIER","origin":"CRF","derivation":"SDTM Target: QVAL · This does not map directly to an SDTMIG variable. This information could be submitted in a SUPPEX dataset as the value of SUPPEX.QVAL where SUPPEX.QNAM = \"EXFLRT\" and SUPPEX.QLABEL= \"Infusion Rate\". Refer to the current SDTM and SDTMIG for instructions on placement of NSVs in SDTM domains.","codelist":null,"key_seq":null,"core":"Perm","version":"2.3","status":"ACTIVE","effective_from":"2026-03-27T00:00:00.000Z","updated_at":"2026-03-27T00:00:00.000Z","updated_by":"CDISC CDASH Team","change_reason":"CDASHIG v2.3 Release"},{"study_id":"GLOBAL","standard":"CDASH","domain":"EX","name":"EXFLRTU","label":"Exposure Infusion Rate Unit","type":"Char","length":200,"format":"","role":"QUALIFIER","origin":"CRF","derivation":"SDTM Target: QVAL · This does not map directly to an SDTMIG variable. This information could be submitted in a SUPPEX dataset as the value of SUPPEX.QVAL where SUPPEX.QNAM =\"EXFLRTU\" and SUPPEX.QLABEL=\"Infusion Rate Unit\". Refer to the current SDTM and SDTMIG for instructions on placement of NSVs in SDTM domains.","codelist":"UNIT; EXFLRTU","key_seq":null,"core":"Perm","version":"2.3","status":"ACTIVE","effective_from":"2026-03-27T00:00:00.000Z","updated_at":"2026-03-27T00:00:00.000Z","updated_by":"CDISC CDASH Team","change_reason":"CDASHIG v2.3 Release"},{"study_id":"GLOBAL","standard":"CDASH","domain":"EX","name":"EXTPT","label":"Exposure Planned Time Point Name","type":"Char","length":200,"format":"","role":"QUALIFIER","origin":"CRF","derivation":"SDTM Target: EXTPT","codelist":null,"key_seq":null,"core":"R/C","version":"2.3","status":"ACTIVE","effective_from":"2026-03-27T00:00:00.000Z","updated_at":"2026-03-27T00:00:00.000Z","updated_by":"CDISC CDASH Team","change_reason":"CDASHIG v2.3 Release"},{"study_id":"GLOBAL","standard":"CDASH","domain":"EX","name":"EXTRTCMP","label":"Completed Treatment","type":"Char","length":200,"format":"","role":"QUALIFIER","origin":"CRF","derivation":"SDTM Target: QVAL · This does not map directly to an SDTMIG variable. This information could be submitted in a SUPPEX dataset as the value of SUPPEX.QVAL where SUPPEX.QNAM = \"EXTRTCMP\" and SUPPEX.QLABEL=\" Completed Treatment\". Refer to the current SDTM and SDTMIG for instructions on placement of NSVs in SDTM domains.","codelist":"NY","key_seq":null,"core":"Perm","version":"2.3","status":"ACTIVE","effective_from":"2026-03-27T00:00:00.000Z","updated_at":"2026-03-27T00:00:00.000Z","updated_by":"CDISC CDASH Team","change_reason":"CDASHIG v2.3 Release"},{"study_id":"GLOBAL","standard":"CDASH","domain":"EX","name":"EXLAT","label":"Exposure Laterality","type":"Char","length":200,"format":"","role":"QUALIFIER","origin":"CRF","derivation":"SDTM Target: EXLAT","codelist":"LAT","key_seq":null,"core":"Perm","version":"2.3","status":"ACTIVE","effective_from":"2026-03-27T00:00:00.000Z","updated_at":"2026-03-27T00:00:00.000Z","updated_by":"CDISC CDASH Team","change_reason":"CDASHIG v2.3 Release"},{"study_id":"GLOBAL","standard":"CDASH","domain":"EX","name":"EXDIR","label":"Exposure Directionality","type":"Char","length":200,"format":"","role":"QUALIFIER","origin":"CRF","derivation":"SDTM Target: EXDIR","codelist":"DIR","key_seq":null,"core":"Perm","version":"2.3","status":"ACTIVE","effective_from":"2026-03-27T00:00:00.000Z","updated_at":"2026-03-27T00:00:00.000Z","updated_by":"CDISC CDASH Team","change_reason":"CDASHIG v2.3 Release"},{"study_id":"GLOBAL","standard":"CDASH","domain":"ML","name":"STUDYID","label":"Study Identifier","type":"Char","length":200,"format":"","role":"IDENTIFIER","origin":"CRF","derivation":"SDTM Target: STUDYID","codelist":null,"key_seq":1,"core":"Req","version":"2.3","status":"ACTIVE","effective_from":"2026-03-27T00:00:00.000Z","updated_at":"2026-03-27T00:00:00.000Z","updated_by":"CDISC CDASH Team","change_reason":"CDASHIG v2.3 Release"},{"study_id":"GLOBAL","standard":"CDASH","domain":"ML","name":"SITEID","label":"Study Site Identifier","type":"Char","length":200,"format":"","role":"IDENTIFIER","origin":"CRF","derivation":"SDTM Target: SITEID","codelist":null,"key_seq":2,"core":"Req","version":"2.3","status":"ACTIVE","effective_from":"2026-03-27T00:00:00.000Z","updated_at":"2026-03-27T00:00:00.000Z","updated_by":"CDISC CDASH Team","change_reason":"CDASHIG v2.3 Release"},{"study_id":"GLOBAL","standard":"CDASH","domain":"ML","name":"SUBJID","label":"Subject Identifier for the Study","type":"Char","length":200,"format":"","role":"IDENTIFIER","origin":"CRF","derivation":"SDTM Target: SUBJID","codelist":null,"key_seq":3,"core":"Req","version":"2.3","status":"ACTIVE","effective_from":"2026-03-27T00:00:00.000Z","updated_at":"2026-03-27T00:00:00.000Z","updated_by":"CDISC CDASH Team","change_reason":"CDASHIG v2.3 Release"},{"study_id":"GLOBAL","standard":"CDASH","domain":"ML","name":"MLCAT","label":"Category for Meal","type":"Char","length":200,"format":"","role":"QUALIFIER","origin":"CRF","derivation":"SDTM Target: MLCAT","codelist":null,"key_seq":null,"core":"Perm","version":"2.3","status":"ACTIVE","effective_from":"2026-03-27T00:00:00.000Z","updated_at":"2026-03-27T00:00:00.000Z","updated_by":"CDISC CDASH Team","change_reason":"CDASHIG v2.3 Release"},{"study_id":"GLOBAL","standard":"CDASH","domain":"ML","name":"MLSCAT","label":"Subcategory for Meal","type":"Char","length":200,"format":"","role":"QUALIFIER","origin":"CRF","derivation":"SDTM Target: MLSCAT","codelist":null,"key_seq":null,"core":"Perm","version":"2.3","status":"ACTIVE","effective_from":"2026-03-27T00:00:00.000Z","updated_at":"2026-03-27T00:00:00.000Z","updated_by":"CDISC CDASH Team","change_reason":"CDASHIG v2.3 Release"},{"study_id":"GLOBAL","standard":"CDASH","domain":"ML","name":"MLYN","label":"Any Meal Taken","type":"Char","length":200,"format":"","role":"QUALIFIER","origin":"CRF","derivation":" · Does not map to an SDTMIG variable. The SDTM annotated CRF indicates that this field is NOT SUBMITTED.","codelist":"NY","key_seq":null,"core":"Perm","version":"2.3","status":"ACTIVE","effective_from":"2026-03-27T00:00:00.000Z","updated_at":"2026-03-27T00:00:00.000Z","updated_by":"CDISC CDASH Team","change_reason":"CDASHIG v2.3 Release"},{"study_id":"GLOBAL","standard":"CDASH","domain":"ML","name":"MLSPID","label":"ML Sponsor-Defined Identifier","type":"Char","length":200,"format":"","role":"QUALIFIER","origin":"CRF","derivation":"SDTM Target: MLSPID","codelist":null,"key_seq":null,"core":"Perm","version":"2.3","status":"ACTIVE","effective_from":"2026-03-27T00:00:00.000Z","updated_at":"2026-03-27T00:00:00.000Z","updated_by":"CDISC CDASH Team","change_reason":"CDASHIG v2.3 Release"},{"study_id":"GLOBAL","standard":"CDASH","domain":"ML","name":"MLTRT","label":"Name of Meal or Food Product","type":"Char","length":200,"format":"","role":"TOPIC","origin":"CRF","derivation":"SDTM Target: MLTRT","codelist":null,"key_seq":null,"core":"Req","version":"2.3","status":"ACTIVE","effective_from":"2026-03-27T00:00:00.000Z","updated_at":"2026-03-27T00:00:00.000Z","updated_by":"CDISC CDASH Team","change_reason":"CDASHIG v2.3 Release"},{"study_id":"GLOBAL","standard":"CDASH","domain":"ML","name":"MLPRESP","label":"ML Prespecified","type":"Char","length":200,"format":"","role":"QUALIFIER","origin":"CRF","derivation":"SDTM Target: MLPRESP","codelist":"NY","key_seq":null,"core":"Perm","version":"2.3","status":"ACTIVE","effective_from":"2026-03-27T00:00:00.000Z","updated_at":"2026-03-27T00:00:00.000Z","updated_by":"CDISC CDASH Team","change_reason":"CDASHIG v2.3 Release"},{"study_id":"GLOBAL","standard":"CDASH","domain":"ML","name":"MLOCCUR","label":"ML Occurrence","type":"Char","length":200,"format":"","role":"QUALIFIER","origin":"CRF","derivation":"SDTM Target: MLOCCUR","codelist":"NY","key_seq":null,"core":"Perm","version":"2.3","status":"ACTIVE","effective_from":"2026-03-27T00:00:00.000Z","updated_at":"2026-03-27T00:00:00.000Z","updated_by":"CDISC CDASH Team","change_reason":"CDASHIG v2.3 Release"},{"study_id":"GLOBAL","standard":"CDASH","domain":"ML","name":"MLREASOC","label":"Reason for Occur Value","type":"Char","length":200,"format":"","role":"QUALIFIER","origin":"CRF","derivation":"SDTM Target: QVAL · This information could be submitted in a SUPPML dataset as the value of SUPPML.QVAL where SUPPML.QNAM = \"MLREASOC\" and SUPPML.QLABEL =\"Reason for Occur Value\". Refer to the current SDTM and SDTMIG for instructions on placement of NSVs in SDTM domains.","codelist":null,"key_seq":null,"core":"Perm","version":"2.3","status":"ACTIVE","effective_from":"2026-03-27T00:00:00.000Z","updated_at":"2026-03-27T00:00:00.000Z","updated_by":"CDISC CDASH Team","change_reason":"CDASHIG v2.3 Release"},{"study_id":"GLOBAL","standard":"CDASH","domain":"ML","name":"MLREAS","label":"ML Reason","type":"Char","length":200,"format":"","role":"QUALIFIER","origin":"CRF","derivation":"SDTM Target: QVAL · This information could be submitted in a SUPPML dataset as the value of SUPPML.QVAL where SUPPML.QNAM = \"MLREAS\" and SUPPML.QLABEL =\"Reason for the Intervention\". Refer to the current SDTM and SDTMIG for instructions on placement of NSVs in SDTM domains.","codelist":null,"key_seq":null,"core":"Perm","version":"2.3","status":"ACTIVE","effective_from":"2026-03-27T00:00:00.000Z","updated_at":"2026-03-27T00:00:00.000Z","updated_by":"CDISC CDASH Team","change_reason":"CDASHIG v2.3 Release"},{"study_id":"GLOBAL","standard":"CDASH","domain":"ML","name":"MLCENO","label":"Related Clinical Event ID","type":"Char","length":200,"format":"","role":"QUALIFIER","origin":"CRF","derivation":" · This does not map directly to an SDTMIG variable. For the SDTM submission datasets, may be used to create RELREC to link this record with a record in the CE domain.","codelist":null,"key_seq":null,"core":"Perm","version":"2.3","status":"ACTIVE","effective_from":"2026-03-27T00:00:00.000Z","updated_at":"2026-03-27T00:00:00.000Z","updated_by":"CDISC CDASH Team","change_reason":"CDASHIG v2.3 Release"},{"study_id":"GLOBAL","standard":"CDASH","domain":"ML","name":"MLDOSE","label":"Dose","type":"Num","length":8,"format":"8.","role":"QUALIFIER","origin":"CRF","derivation":"SDTM Target: MLDOSE","codelist":null,"key_seq":null,"core":"Perm","version":"2.3","status":"ACTIVE","effective_from":"2026-03-27T00:00:00.000Z","updated_at":"2026-03-27T00:00:00.000Z","updated_by":"CDISC CDASH Team","change_reason":"CDASHIG v2.3 Release"},{"study_id":"GLOBAL","standard":"CDASH","domain":"ML","name":"MLDSTXT","label":"Dose Description","type":"Char","length":200,"format":"","role":"QUALIFIER","origin":"CRF","derivation":"SDTM Target: MLDOSTXT; MLDOSE · This does not map directly to an SDTMIG variable. Numeric values map to MLDOSE in SDTM. Non-numeric values (e.g., 200-400) map to MLDOSTXT in SDTM.","codelist":null,"key_seq":null,"core":"Perm","version":"2.3","status":"ACTIVE","effective_from":"2026-03-27T00:00:00.000Z","updated_at":"2026-03-27T00:00:00.000Z","updated_by":"CDISC CDASH Team","change_reason":"CDASHIG v2.3 Release"},{"study_id":"GLOBAL","standard":"CDASH","domain":"ML","name":"MLDOSU","label":"Dose Units","type":"Char","length":200,"format":"","role":"QUALIFIER","origin":"CRF","derivation":"SDTM Target: MLDOSU","codelist":"UNIT; CMDOSU","key_seq":null,"core":"R/C","version":"2.3","status":"ACTIVE","effective_from":"2026-03-27T00:00:00.000Z","updated_at":"2026-03-27T00:00:00.000Z","updated_by":"CDISC CDASH Team","change_reason":"CDASHIG v2.3 Release"},{"study_id":"GLOBAL","standard":"CDASH","domain":"ML","name":"MLSTDAT","label":"Meal Start Date","type":"Char","length":200,"format":"","role":"QUALIFIER","origin":"CRF","derivation":"SDTM Target: MLSTDTC · This does not map directly to an SDTMIG variable. For the SDTM submission dataset, concatenate all collected CDASH START DATE and TIME components and populate the SDTMIG variable MLSTDTC in ISO 8601 format.","codelist":null,"key_seq":null,"core":"R/C","version":"2.3","status":"ACTIVE","effective_from":"2026-03-27T00:00:00.000Z","updated_at":"2026-03-27T00:00:00.000Z","updated_by":"CDISC CDASH Team","change_reason":"CDASHIG v2.3 Release"},{"study_id":"GLOBAL","standard":"CDASH","domain":"ML","name":"MLSTTIM","label":"Meal Start Time","type":"Char","length":200,"format":"","role":"TIMING","origin":"CRF","derivation":"SDTM Target: MLSTDTC · This does not map directly to an SDTMIG variable. For the SDTM submission dataset, concatenate all collected CDASH START DATE and TIME components and populate the SDTMIG variable MLSTDTC in ISO 8601 format.","codelist":null,"key_seq":null,"core":"R/C","version":"2.3","status":"ACTIVE","effective_from":"2026-03-27T00:00:00.000Z","updated_at":"2026-03-27T00:00:00.000Z","updated_by":"CDISC CDASH Team","change_reason":"CDASHIG v2.3 Release"},{"study_id":"GLOBAL","standard":"CDASH","domain":"ML","name":"MLENDAT","label":"Meal End Date","type":"Char","length":200,"format":"","role":"QUALIFIER","origin":"CRF","derivation":"SDTM Target: MLENDTC · This does not map directly to an SDTMIG variable. For the SDTM submission dataset, concatenate all collected CDASH END DATE and TIME components and populate the SDTMIG variable MLENDTC in ISO 8601 format.","codelist":null,"key_seq":null,"core":"R/C","version":"2.3","status":"ACTIVE","effective_from":"2026-03-27T00:00:00.000Z","updated_at":"2026-03-27T00:00:00.000Z","updated_by":"CDISC CDASH Team","change_reason":"CDASHIG v2.3 Release"},{"study_id":"GLOBAL","standard":"CDASH","domain":"ML","name":"MLENTIM","label":"Meal End Time","type":"Char","length":200,"format":"","role":"TIMING","origin":"CRF","derivation":"SDTM Target: MLENDTC · This does not map directly to an SDTMIG variable. For the SDTM submission dataset, concatenate all collected CDASH END DATE and TIME components and populate the SDTMIG variable MLENDTC in ISO 8601 format.","codelist":null,"key_seq":null,"core":"R/C","version":"2.3","status":"ACTIVE","effective_from":"2026-03-27T00:00:00.000Z","updated_at":"2026-03-27T00:00:00.000Z","updated_by":"CDISC CDASH Team","change_reason":"CDASHIG v2.3 Release"},{"study_id":"GLOBAL","standard":"CDASH","domain":"ML","name":"MLDECOD","label":"Standardized Meal Name","type":"Char","length":200,"format":"","role":"QUALIFIER","origin":"CRF","derivation":"","codelist":null,"key_seq":null,"core":"Perm","version":"2.3","status":"ACTIVE","effective_from":"2026-03-27T00:00:00.000Z","updated_at":"2026-03-27T00:00:00.000Z","updated_by":"CDISC CDASH Team","change_reason":"CDASHIG v2.3 Release"},{"study_id":"GLOBAL","standard":"CDASH","domain":"ML","name":"MLMODIFY","label":"Modified Reported Term","type":"Char","length":200,"format":"","role":"TOPIC","origin":"CRF","derivation":"","codelist":null,"key_seq":null,"core":"Perm","version":"2.3","status":"ACTIVE","effective_from":"2026-03-27T00:00:00.000Z","updated_at":"2026-03-27T00:00:00.000Z","updated_by":"CDISC CDASH Team","change_reason":"CDASHIG v2.3 Release"},{"study_id":"GLOBAL","standard":"CDASH","domain":"PR","name":"STUDYID","label":"Study Identifier","type":"Char","length":200,"format":"","role":"IDENTIFIER","origin":"CRF","derivation":"SDTM Target: STUDYID","codelist":null,"key_seq":1,"core":"Req","version":"2.3","status":"ACTIVE","effective_from":"2026-03-27T00:00:00.000Z","updated_at":"2026-03-27T00:00:00.000Z","updated_by":"CDISC CDASH Team","change_reason":"CDASHIG v2.3 Release"},{"study_id":"GLOBAL","standard":"CDASH","domain":"PR","name":"SITEID","label":"Study Site Identifier","type":"Char","length":200,"format":"","role":"IDENTIFIER","origin":"CRF","derivation":"SDTM Target: SITEID","codelist":null,"key_seq":2,"core":"Req","version":"2.3","status":"ACTIVE","effective_from":"2026-03-27T00:00:00.000Z","updated_at":"2026-03-27T00:00:00.000Z","updated_by":"CDISC CDASH Team","change_reason":"CDASHIG v2.3 Release"},{"study_id":"GLOBAL","standard":"CDASH","domain":"PR","name":"SUBJID","label":"Subject Identifier for the Study","type":"Char","length":200,"format":"","role":"IDENTIFIER","origin":"CRF","derivation":"SDTM Target: SUBJID","codelist":null,"key_seq":3,"core":"Req","version":"2.3","status":"ACTIVE","effective_from":"2026-03-27T00:00:00.000Z","updated_at":"2026-03-27T00:00:00.000Z","updated_by":"CDISC CDASH Team","change_reason":"CDASHIG v2.3 Release"},{"study_id":"GLOBAL","standard":"CDASH","domain":"PR","name":"PRYN","label":"Any Procedures Performed","type":"Char","length":200,"format":"","role":"QUALIFIER","origin":"CRF","derivation":" · Does not map to an SDTMIG variable. The SDTM annotated CRF indicates that this field is NOT SUBMITTED.","codelist":"NY","key_seq":null,"core":"Perm","version":"2.3","status":"ACTIVE","effective_from":"2026-03-27T00:00:00.000Z","updated_at":"2026-03-27T00:00:00.000Z","updated_by":"CDISC CDASH Team","change_reason":"CDASHIG v2.3 Release"},{"study_id":"GLOBAL","standard":"CDASH","domain":"PR","name":"PRCAT","label":"Procedure Category","type":"Char","length":200,"format":"","role":"QUALIFIER","origin":"CRF","derivation":"SDTM Target: PRCAT","codelist":null,"key_seq":null,"core":"Perm","version":"2.3","status":"ACTIVE","effective_from":"2026-03-27T00:00:00.000Z","updated_at":"2026-03-27T00:00:00.000Z","updated_by":"CDISC CDASH Team","change_reason":"CDASHIG v2.3 Release"},{"study_id":"GLOBAL","standard":"CDASH","domain":"PR","name":"PRSCAT","label":"Procedure Subcategory","type":"Char","length":200,"format":"","role":"QUALIFIER","origin":"CRF","derivation":"SDTM Target: PRSCAT","codelist":null,"key_seq":null,"core":"Perm","version":"2.3","status":"ACTIVE","effective_from":"2026-03-27T00:00:00.000Z","updated_at":"2026-03-27T00:00:00.000Z","updated_by":"CDISC CDASH Team","change_reason":"CDASHIG v2.3 Release"},{"study_id":"GLOBAL","standard":"CDASH","domain":"PR","name":"PRSPID","label":"Procedure Sponsor-Defined Identifier","type":"Char","length":200,"format":"","role":"QUALIFIER","origin":"CRF","derivation":"SDTM Target: PRSPID","codelist":null,"key_seq":null,"core":"Perm","version":"2.3","status":"ACTIVE","effective_from":"2026-03-27T00:00:00.000Z","updated_at":"2026-03-27T00:00:00.000Z","updated_by":"CDISC CDASH Team","change_reason":"CDASHIG v2.3 Release"},{"study_id":"GLOBAL","standard":"CDASH","domain":"PR","name":"PRTRT","label":"Reported Name of Procedure","type":"Char","length":200,"format":"","role":"TOPIC","origin":"CRF","derivation":"SDTM Target: PRTRT","codelist":null,"key_seq":null,"core":"Req","version":"2.3","status":"ACTIVE","effective_from":"2026-03-27T00:00:00.000Z","updated_at":"2026-03-27T00:00:00.000Z","updated_by":"CDISC CDASH Team","change_reason":"CDASHIG v2.3 Release"},{"study_id":"GLOBAL","standard":"CDASH","domain":"PR","name":"PRDECOD","label":"Standardized Procedure Name","type":"Char","length":200,"format":"","role":"QUALIFIER","origin":"CRF","derivation":"SDTM Target: PRDECOD","codelist":"PROCEDUR","key_seq":null,"core":"Perm","version":"2.3","status":"ACTIVE","effective_from":"2026-03-27T00:00:00.000Z","updated_at":"2026-03-27T00:00:00.000Z","updated_by":"CDISC CDASH Team","change_reason":"CDASHIG v2.3 Release"},{"study_id":"GLOBAL","standard":"CDASH","domain":"PR","name":"PRMODIFY","label":"Modified Procedure Name","type":"Char","length":200,"format":"","role":"TOPIC","origin":"CRF","derivation":"","codelist":null,"key_seq":null,"core":"Perm","version":"2.3","status":"ACTIVE","effective_from":"2026-03-27T00:00:00.000Z","updated_at":"2026-03-27T00:00:00.000Z","updated_by":"CDISC CDASH Team","change_reason":"CDASHIG v2.3 Release"},{"study_id":"GLOBAL","standard":"CDASH","domain":"PR","name":"PRPRESP","label":"Procedure Prespecified","type":"Char","length":200,"format":"","role":"QUALIFIER","origin":"CRF","derivation":"SDTM Target: PRPRESP","codelist":"NY","key_seq":null,"core":"Perm","version":"2.3","status":"ACTIVE","effective_from":"2026-03-27T00:00:00.000Z","updated_at":"2026-03-27T00:00:00.000Z","updated_by":"CDISC CDASH Team","change_reason":"CDASHIG v2.3 Release"},{"study_id":"GLOBAL","standard":"CDASH","domain":"PR","name":"PROCCUR","label":"Procedure Occurrence","type":"Char","length":200,"format":"","role":"QUALIFIER","origin":"CRF","derivation":"SDTM Target: PROCCUR","codelist":"NY","key_seq":null,"core":"Perm","version":"2.3","status":"ACTIVE","effective_from":"2026-03-27T00:00:00.000Z","updated_at":"2026-03-27T00:00:00.000Z","updated_by":"CDISC CDASH Team","change_reason":"CDASHIG v2.3 Release"},{"study_id":"GLOBAL","standard":"CDASH","domain":"PR","name":"PRREASOC","label":"Procedure Reason for Occur Value","type":"Char","length":200,"format":"","role":"QUALIFIER","origin":"CRF","derivation":"","codelist":null,"key_seq":null,"core":"Perm","version":"2.3","status":"ACTIVE","effective_from":"2026-03-27T00:00:00.000Z","updated_at":"2026-03-27T00:00:00.000Z","updated_by":"CDISC CDASH Team","change_reason":"CDASHIG v2.3 Release"},{"study_id":"GLOBAL","standard":"CDASH","domain":"PR","name":"PRREASND","label":"Procedure Reason Not Done","type":"Char","length":200,"format":"","role":"QUALIFIER","origin":"CRF","derivation":"","codelist":null,"key_seq":null,"core":"Perm","version":"2.3","status":"ACTIVE","effective_from":"2026-03-27T00:00:00.000Z","updated_at":"2026-03-27T00:00:00.000Z","updated_by":"CDISC CDASH Team","change_reason":"CDASHIG v2.3 Release"},{"study_id":"GLOBAL","standard":"CDASH","domain":"PR","name":"PRPRIOR","label":"Prior Procedure","type":"Char","length":200,"format":"","role":"QUALIFIER","origin":"CRF","derivation":"SDTM Target: PRSTRTPT · This does not map directly to an SDTMIG variable. May be used to populate a value into an SDTM relative timing variable such as PRSTRF or PRSTRTPT. When populating PRSTRF, or PRSTRTPT, if the value of the CDASH field PRPRIOR is \"Y\" a value from the CDISC CT (STENRF) may be used. When PRPRIOR refers to the Study Reference Period (defined in DM.RFSTDTC to DM.RFENDTC) the SDTM variable PRSTRF should be populated. When PRPRIOR is compared to another time point, the SDTM variables PRSTRTPT and PRSTTPT should be used. Note: PRSTRTPT must refer to the time-point anchor described in PRSTTPT.","codelist":"NY","key_seq":null,"core":"Perm","version":"2.3","status":"ACTIVE","effective_from":"2026-03-27T00:00:00.000Z","updated_at":"2026-03-27T00:00:00.000Z","updated_by":"CDISC CDASH Team","change_reason":"CDASHIG v2.3 Release"},{"study_id":"GLOBAL","standard":"CDASH","domain":"PR","name":"PRSTDAT","label":"Procedure Start Date","type":"Char","length":200,"format":"","role":"QUALIFIER","origin":"CRF","derivation":"SDTM Target: PRSTDTC · This does not map directly to an SDTMIG variable. For the SDTM submission dataset, concatenate all collected CDASH START DATE and TIME components and populate the SDTMIG variable PRSTDTC in ISO 8601 format.","codelist":null,"key_seq":null,"core":"R/C","version":"2.3","status":"ACTIVE","effective_from":"2026-03-27T00:00:00.000Z","updated_at":"2026-03-27T00:00:00.000Z","updated_by":"CDISC CDASH Team","change_reason":"CDASHIG v2.3 Release"},{"study_id":"GLOBAL","standard":"CDASH","domain":"PR","name":"PRONGO","label":"Ongoing Procedure","type":"Char","length":200,"format":"","role":"QUALIFIER","origin":"CRF","derivation":"SDTM Target: PRENRTPT · This does not map directly to an SDTM variable. May be used to populate a value into an SDTMIG relative timing variable such as PRENRF or PRENRTPT. When populating PRENRF, if the value of PRONGO is \"Y\", the value of \"DURING\", \"AFTER\" or \"DURING/AFTER\" may be used. When populating PRENRTPT, if the value of PRONGO is \"Y\", the value of \"ONGOING\" may be used. When PRONGO refers to the Study Reference Period (defined in DM.RFSTDTC to DM.RFENDTC) the SDTM variable PRENRF should be populated. When PRONGO is used in conjunction with another time point, the SDTM variables PRENRTPT and PRENTPT should be used. Note: PRENRTPT must refer to a time point anchor described in PRENTPT.","codelist":"NY","key_seq":null,"core":"Perm","version":"2.3","status":"ACTIVE","effective_from":"2026-03-27T00:00:00.000Z","updated_at":"2026-03-27T00:00:00.000Z","updated_by":"CDISC CDASH Team","change_reason":"CDASHIG v2.3 Release"},{"study_id":"GLOBAL","standard":"CDASH","domain":"PR","name":"PRENDAT","label":"Procedure End Date","type":"Char","length":200,"format":"","role":"QUALIFIER","origin":"CRF","derivation":"SDTM Target: PRENDTC · This does not map directly to an SDTMIG variable. For the SDTM submission dataset, concatenate all collected CDASH END DATE and TIME components and populate the SDTM variable PRENDTC in ISO 8601 format.","codelist":null,"key_seq":null,"core":"R/C","version":"2.3","status":"ACTIVE","effective_from":"2026-03-27T00:00:00.000Z","updated_at":"2026-03-27T00:00:00.000Z","updated_by":"CDISC CDASH Team","change_reason":"CDASHIG v2.3 Release"},{"study_id":"GLOBAL","standard":"CDASH","domain":"PR","name":"PRINDC","label":"Procedure Indication","type":"Char","length":200,"format":"","role":"QUALIFIER","origin":"CRF","derivation":"SDTM Target: PRINDC","codelist":null,"key_seq":null,"core":"Perm","version":"2.3","status":"ACTIVE","effective_from":"2026-03-27T00:00:00.000Z","updated_at":"2026-03-27T00:00:00.000Z","updated_by":"CDISC CDASH Team","change_reason":"CDASHIG v2.3 Release"},{"study_id":"GLOBAL","standard":"CDASH","domain":"PR","name":"PRAENO","label":"Related Adverse Event ID","type":"Char","length":200,"format":"","role":"QUALIFIER","origin":"CRF","derivation":" · This does not map directly to an SDTMIG variable. For the SDTM submission datasets, may be used to create RELREC to link this record with a record in the AE domain.","codelist":null,"key_seq":null,"core":"Perm","version":"2.3","status":"ACTIVE","effective_from":"2026-03-27T00:00:00.000Z","updated_at":"2026-03-27T00:00:00.000Z","updated_by":"CDISC CDASH Team","change_reason":"CDASHIG v2.3 Release"},{"study_id":"GLOBAL","standard":"CDASH","domain":"PR","name":"PRMHNO","label":"Related Medical History Event ID","type":"Char","length":200,"format":"","role":"QUALIFIER","origin":"CRF","derivation":" · This does not map directly to an SDTMIG variable. For the SDTM submission datasets, may be used to create RELREC to link this record with a record in the MH domain.","codelist":null,"key_seq":null,"core":"Perm","version":"2.3","status":"ACTIVE","effective_from":"2026-03-27T00:00:00.000Z","updated_at":"2026-03-27T00:00:00.000Z","updated_by":"CDISC CDASH Team","change_reason":"CDASHIG v2.3 Release"},{"study_id":"GLOBAL","standard":"CDASH","domain":"PR","name":"PRDSTXT","label":"Procedure Dose Description","type":"Char","length":200,"format":"","role":"QUALIFIER","origin":"CRF","derivation":"SDTM Target: PRDOSE; PRDOSTXT · This does not map directly to an SDTMIG variable. Numeric values map to PRDOSE in SDTM. Non-numeric values (e.g., 200-400) map to PRDOSTXT in SDTM.","codelist":null,"key_seq":null,"core":"Perm","version":"2.3","status":"ACTIVE","effective_from":"2026-03-27T00:00:00.000Z","updated_at":"2026-03-27T00:00:00.000Z","updated_by":"CDISC CDASH Team","change_reason":"CDASHIG v2.3 Release"},{"study_id":"GLOBAL","standard":"CDASH","domain":"PR","name":"PRDOSU","label":"Procedure Dose Unit","type":"Char","length":200,"format":"","role":"QUALIFIER","origin":"CRF","derivation":"SDTM Target: PRDOSU","codelist":"UNIT","key_seq":null,"core":"Perm","version":"2.3","status":"ACTIVE","effective_from":"2026-03-27T00:00:00.000Z","updated_at":"2026-03-27T00:00:00.000Z","updated_by":"CDISC CDASH Team","change_reason":"CDASHIG v2.3 Release"},{"study_id":"GLOBAL","standard":"CDASH","domain":"PR","name":"PRDOSFRQ","label":"Procedure Frequency per Interval","type":"Char","length":200,"format":"","role":"QUALIFIER","origin":"CRF","derivation":"SDTM Target: PRDOSFRQ","codelist":"FREQ","key_seq":null,"core":"Perm","version":"2.3","status":"ACTIVE","effective_from":"2026-03-27T00:00:00.000Z","updated_at":"2026-03-27T00:00:00.000Z","updated_by":"CDISC CDASH Team","change_reason":"CDASHIG v2.3 Release"},{"study_id":"GLOBAL","standard":"CDASH","domain":"PR","name":"PRROUTE","label":"Procedure Route of Administration","type":"Char","length":200,"format":"","role":"QUALIFIER","origin":"CRF","derivation":"SDTM Target: PRROUTE","codelist":"ROUTE","key_seq":null,"core":"Perm","version":"2.3","status":"ACTIVE","effective_from":"2026-03-27T00:00:00.000Z","updated_at":"2026-03-27T00:00:00.000Z","updated_by":"CDISC CDASH Team","change_reason":"CDASHIG v2.3 Release"},{"study_id":"GLOBAL","standard":"CDASH","domain":"PR","name":"PRLOC","label":"Location of Procedure","type":"Char","length":200,"format":"","role":"QUALIFIER","origin":"CRF","derivation":"SDTM Target: PRLOC","codelist":"LOC","key_seq":null,"core":"Perm","version":"2.3","status":"ACTIVE","effective_from":"2026-03-27T00:00:00.000Z","updated_at":"2026-03-27T00:00:00.000Z","updated_by":"CDISC CDASH Team","change_reason":"CDASHIG v2.3 Release"},{"study_id":"GLOBAL","standard":"CDASH","domain":"PR","name":"PRLAT","label":"Procedure Laterality","type":"Char","length":200,"format":"","role":"QUALIFIER","origin":"CRF","derivation":"SDTM Target: PRLAT","codelist":"LAT","key_seq":null,"core":"Perm","version":"2.3","status":"ACTIVE","effective_from":"2026-03-27T00:00:00.000Z","updated_at":"2026-03-27T00:00:00.000Z","updated_by":"CDISC CDASH Team","change_reason":"CDASHIG v2.3 Release"},{"study_id":"GLOBAL","standard":"CDASH","domain":"PR","name":"PRDIR","label":"Procedure Directionality","type":"Char","length":200,"format":"","role":"QUALIFIER","origin":"CRF","derivation":"SDTM Target: PRDIR","codelist":"DIR","key_seq":null,"core":"Perm","version":"2.3","status":"ACTIVE","effective_from":"2026-03-27T00:00:00.000Z","updated_at":"2026-03-27T00:00:00.000Z","updated_by":"CDISC CDASH Team","change_reason":"CDASHIG v2.3 Release"},{"study_id":"GLOBAL","standard":"CDASH","domain":"PR","name":"PRPORTOT","label":"Procedure Portion or Totality","type":"Char","length":200,"format":"","role":"QUALIFIER","origin":"CRF","derivation":"SDTM Target: PRPORTOT","codelist":"PORTOT","key_seq":null,"core":"Perm","version":"2.3","status":"ACTIVE","effective_from":"2026-03-27T00:00:00.000Z","updated_at":"2026-03-27T00:00:00.000Z","updated_by":"CDISC CDASH Team","change_reason":"CDASHIG v2.3 Release"},{"study_id":"GLOBAL","standard":"CDASH","domain":"PR","name":"PRFAST","label":"Procedure Fasting Status","type":"Char","length":200,"format":"","role":"QUALIFIER","origin":"CRF","derivation":"","codelist":"NY","key_seq":null,"core":"Perm","version":"2.3","status":"ACTIVE","effective_from":"2026-03-27T00:00:00.000Z","updated_at":"2026-03-27T00:00:00.000Z","updated_by":"CDISC CDASH Team","change_reason":"CDASHIG v2.3 Release"},{"study_id":"GLOBAL","standard":"CDASH","domain":"PR","name":"PRDOSRGM","label":"Procedure Intended Dose Regimen","type":"Char","length":200,"format":"","role":"QUALIFIER","origin":"CRF","derivation":"SDTM Target: PRDOSRGM","codelist":null,"key_seq":null,"core":"Perm","version":"2.3","status":"ACTIVE","effective_from":"2026-03-27T00:00:00.000Z","updated_at":"2026-03-27T00:00:00.000Z","updated_by":"CDISC CDASH Team","change_reason":"CDASHIG v2.3 Release"},{"study_id":"GLOBAL","standard":"CDASH","domain":"PR","name":"PRDOSADJ","label":"Procedure Adjusted","type":"Char","length":200,"format":"","role":"QUALIFIER","origin":"CRF","derivation":" · When PRADJ is collected, does not map to an SDTMIG variable. The SDTM annotated CRF indicates that this field is NOT SUBMITTED. When PRADJ is not collected, the sponsor may submit this variable as a SUPPQ.","codelist":"NY","key_seq":null,"core":"Perm","version":"2.3","status":"ACTIVE","effective_from":"2026-03-27T00:00:00.000Z","updated_at":"2026-03-27T00:00:00.000Z","updated_by":"CDISC CDASH Team","change_reason":"CDASHIG v2.3 Release"},{"study_id":"GLOBAL","standard":"CDASH","domain":"PR","name":"PRADJ","label":"Reason for Procedure Adjustment","type":"Char","length":200,"format":"","role":"QUALIFIER","origin":"CRF","derivation":"","codelist":null,"key_seq":null,"core":"Perm","version":"2.3","status":"ACTIVE","effective_from":"2026-03-27T00:00:00.000Z","updated_at":"2026-03-27T00:00:00.000Z","updated_by":"CDISC CDASH Team","change_reason":"CDASHIG v2.3 Release"},{"study_id":"GLOBAL","standard":"CDASH","domain":"PR","name":"PRTRTCMP","label":"Completed Procedure","type":"Char","length":200,"format":"","role":"QUALIFIER","origin":"CRF","derivation":"SDTM Target: QVAL · This does not map directly to an SDTMIG variable. This information could be submitted in a SUPPPR dataset as the value of SUPPPR.QVAL where SUPPPR.QNAM= \"PRTRTCMP\" and SUPPPR.QLABEL=\"Treatment Completed\". Refer to the current SDTM and SDTMIG for instructions on placement of NSVs in SDTM domains.","codelist":"NY","key_seq":null,"core":"Perm","version":"2.3","status":"ACTIVE","effective_from":"2026-03-27T00:00:00.000Z","updated_at":"2026-03-27T00:00:00.000Z","updated_by":"CDISC CDASH Team","change_reason":"CDASHIG v2.3 Release"},{"study_id":"GLOBAL","standard":"CDASH","domain":"PR","name":"PRITRPYN","label":"Procedure Interrupted","type":"Char","length":200,"format":"","role":"QUALIFIER","origin":"CRF","derivation":" · Does not map to an SDTMIG variable. The SDTM annotated CRF indicates that this field is NOT SUBMITTED.","codelist":"NY","key_seq":null,"core":"Perm","version":"2.3","status":"ACTIVE","effective_from":"2026-03-27T00:00:00.000Z","updated_at":"2026-03-27T00:00:00.000Z","updated_by":"CDISC CDASH Team","change_reason":"CDASHIG v2.3 Release"},{"study_id":"GLOBAL","standard":"CDASH","domain":"PR","name":"PRITRPRS","label":"Reason Procedure Interrupted","type":"Char","length":200,"format":"","role":"QUALIFIER","origin":"CRF","derivation":"SDTM Target: QVAL · This information could be submitted in a SUPPPR dataset as the value of SUPPPR.QVAL where SUPPPR.QNAM=\"PRITRPRS\" and SUPPPR.QLABEL =\"Reason Intervention Interrupted\". Refer to the current SDTM and SDTMIG for instructions on placement of NSVs in SDTM domains.","codelist":null,"key_seq":null,"core":"Perm","version":"2.3","status":"ACTIVE","effective_from":"2026-03-27T00:00:00.000Z","updated_at":"2026-03-27T00:00:00.000Z","updated_by":"CDISC CDASH Team","change_reason":"CDASHIG v2.3 Release"},{"study_id":"GLOBAL","standard":"CDASH","domain":"PR","name":"PRCINTD","label":"Procedure Interruption Duration","type":"Char","length":200,"format":"","role":"QUALIFIER","origin":"CRF","derivation":"SDTM Target: QVAL · This does not map directly to an SDTMIG variable. This information could be submitted in a SUPPPR dataset as the value of SUPPPR.QVAL where SUPPPR.QNAM=\"PRITRPD\" and SUPPPR.QLABEL= \"Interruption Duration\". Concatenate the collected procedure interruption duration and the duration unit components and create PRITRPD using ISO 8601 Period format. Refer to the current SDTM and SDTMIG for instructions on placement of NSVs in SDTM domains.","codelist":null,"key_seq":null,"core":"Perm","version":"2.3","status":"ACTIVE","effective_from":"2026-03-27T00:00:00.000Z","updated_at":"2026-03-27T00:00:00.000Z","updated_by":"CDISC CDASH Team","change_reason":"CDASHIG v2.3 Release"},{"study_id":"GLOBAL","standard":"CDASH","domain":"PR","name":"PRCINTDU","label":"Procedure Interruption Duration Units","type":"Char","length":200,"format":"","role":"QUALIFIER","origin":"CRF","derivation":"SDTM Target: QVAL · This does not map directly to an SDTMIG variable. This information could be submitted in a SUPPPR dataset as the value of SUPPPR.QVAL where SUPPPR.QNAM=\"PRITRPD\" and SUPPPR.QLABEL= \"Interruption Duration\". Concatenate the collected procedure interruption duration and the duration unit components and create PRITRPD using ISO 8601 Period format. Refer to the current SDTM and SDTMIG for instructions on placement of NSVs in SDTM domains.","codelist":"UNIT","key_seq":null,"core":"Perm","version":"2.3","status":"ACTIVE","effective_from":"2026-03-27T00:00:00.000Z","updated_at":"2026-03-27T00:00:00.000Z","updated_by":"CDISC CDASH Team","change_reason":"CDASHIG v2.3 Release"},{"study_id":"GLOBAL","standard":"CDASH","domain":"PR","name":"PRLLT","label":"Procedure Lowest Level Term","type":"Char","length":200,"format":"","role":"QUALIFIER","origin":"CRF","derivation":"SDTM Target: QVAL · This information could be submitted in a SUPPPR dataset as the value of SUPPPR.QVAL where SUPPPR.QNAM=\"PRLLT\" and SUPPPR.QLABEL=\"Lower Level Term\". Refer to the current SDTM and SDTMIG for instructions on placement of NSVs in SDTM domains. Sponsors should include an Origin column in the SUPPQ dataset to indicate that the data was \"ASSIGNED\".","codelist":null,"key_seq":null,"core":"Perm","version":"2.3","status":"ACTIVE","effective_from":"2026-03-27T00:00:00.000Z","updated_at":"2026-03-27T00:00:00.000Z","updated_by":"CDISC CDASH Team","change_reason":"CDASHIG v2.3 Release"},{"study_id":"GLOBAL","standard":"CDASH","domain":"PR","name":"PRLLTCD","label":"Procedure Lowest Level Term Code","type":"Num","length":8,"format":"8.","role":"QUALIFIER","origin":"CRF","derivation":"SDTM Target: QVAL · This inform