{"version_date":"2026-03-27","domains":[{"study_id":"GLOBAL","standard":"SDTM","code":"TA","name":"Trial Arms","description":"Trial Arms domain per CDISC specification.","structure":"One record per planned Element per Arm","cls":"TRIAL DESIGN","purpose":"Tabulation","key_variables":"STUDYID, DOMAIN, ARMCD, TAETORD","version":"1.0","status":"ACTIVE","updated_at":"2026-03-27T00:00:00.000Z","updated_by":"CDISC Standards Lead","change_reason":"Imported from SDTM IG"},{"study_id":"GLOBAL","standard":"SDTM","code":"TD","name":"Trial Disease Assessments","description":"Trial Disease Assessments domain per CDISC specification.","structure":"One record per planned constant assessment period","cls":"TRIAL DESIGN","purpose":"Tabulation","key_variables":"STUDYID, DOMAIN, TDORDER","version":"1.0","status":"ACTIVE","updated_at":"2026-03-27T00:00:00.000Z","updated_by":"CDISC Standards Lead","change_reason":"Imported from SDTM IG"},{"study_id":"GLOBAL","standard":"SDTM","code":"TE","name":"Trial Elements","description":"Trial Elements domain per CDISC specification.","structure":"One record per planned Element","cls":"TRIAL DESIGN","purpose":"Tabulation","key_variables":"STUDYID, DOMAIN, ETCD","version":"1.0","status":"ACTIVE","updated_at":"2026-03-27T00:00:00.000Z","updated_by":"CDISC Standards Lead","change_reason":"Imported from SDTM IG"},{"study_id":"GLOBAL","standard":"SDTM","code":"TI","name":"Trial Inclusion/Exclusion Criteria","description":"Trial Inclusion/Exclusion Criteria domain per CDISC specification.","structure":"One record per I/E criterion","cls":"TRIAL DESIGN","purpose":"Tabulation","key_variables":"STUDYID, DOMAIN, IETESTCD, TIVERS","version":"1.0","status":"ACTIVE","updated_at":"2026-03-27T00:00:00.000Z","updated_by":"CDISC Standards Lead","change_reason":"Imported from SDTM IG"},{"study_id":"GLOBAL","standard":"SDTM","code":"TM","name":"Trial Disease Milestones","description":"Trial Disease Milestones domain per CDISC specification.","structure":"One record per Disease Milestone type","cls":"TRIAL DESIGN","purpose":"Tabulation","key_variables":"STUDYID, DOMAIN, MIDSTYPE","version":"1.0","status":"ACTIVE","updated_at":"2026-03-27T00:00:00.000Z","updated_by":"CDISC Standards Lead","change_reason":"Imported from SDTM IG"},{"study_id":"GLOBAL","standard":"SDTM","code":"TS","name":"Trial Summary","description":"Trial Summary domain per CDISC specification.","structure":"One record per trial summary parameter value","cls":"TRIAL DESIGN","purpose":"Tabulation","key_variables":"STUDYID, DOMAIN, TSSEQ, TSGRPID, TSPARMCD","version":"1.0","status":"ACTIVE","updated_at":"2026-03-27T00:00:00.000Z","updated_by":"CDISC Standards Lead","change_reason":"Imported from SDTM IG"},{"study_id":"GLOBAL","standard":"SDTM","code":"TV","name":"Trial Visits","description":"Trial Visits domain per CDISC specification.","structure":"One record per planned Visit per Arm","cls":"TRIAL DESIGN","purpose":"Tabulation","key_variables":"STUDYID, DOMAIN, VISITNUM, ARMCD","version":"1.0","status":"ACTIVE","updated_at":"2026-03-27T00:00:00.000Z","updated_by":"CDISC Standards Lead","change_reason":"Imported from SDTM IG"},{"study_id":"GLOBAL","standard":"SDTM","code":"APCO","name":"Associated Persons for CO","description":"Associated Persons for CO domain per CDISC specification.","structure":"One record per comment per associated person","cls":"SPECIAL PURPOSE","purpose":"Tabulation","key_variables":"STUDYID, DOMAIN, RDOMAIN, USUBJID, APID, POOLID","version":"1.0","status":"ACTIVE","updated_at":"2026-03-27T00:00:00.000Z","updated_by":"CDISC Standards Lead","change_reason":"Imported from SDTM IG"},{"study_id":"GLOBAL","standard":"SDTM","code":"APDM","name":"Associated Persons Demographics","description":"Associated Persons Demographics domain per CDISC specification.","structure":"One record per associated person","cls":"SPECIAL PURPOSE","purpose":"Tabulation","key_variables":"STUDYID, DOMAIN, USUBJID, APID, RSUBJID, RDEVID","version":"1.0","status":"ACTIVE","updated_at":"2026-03-27T00:00:00.000Z","updated_by":"CDISC Standards Lead","change_reason":"Imported from SDTM IG"},{"study_id":"GLOBAL","standard":"SDTM","code":"CO","name":"Comments","description":"Comments domain per CDISC specification.","structure":"One record per comment per subject","cls":"SPECIAL PURPOSE","purpose":"Tabulation","key_variables":"STUDYID, DOMAIN, RDOMAIN, USUBJID, POOLID, SPDEVID","version":"1.0","status":"ACTIVE","updated_at":"2026-03-27T00:00:00.000Z","updated_by":"CDISC Standards Lead","change_reason":"Imported from SDTM IG"},{"study_id":"GLOBAL","standard":"SDTM","code":"DM","name":"Demographics","description":"Demographics domain per CDISC specification.","structure":"One record per subject","cls":"SPECIAL PURPOSE","purpose":"Tabulation","key_variables":"STUDYID, DOMAIN, USUBJID","version":"1.0","status":"ACTIVE","updated_at":"2026-03-27T00:00:00.000Z","updated_by":"CDISC Standards Lead","change_reason":"Imported from SDTM IG"},{"study_id":"GLOBAL","standard":"SDTM","code":"SE","name":"Subject Elements","description":"Subject Elements domain per CDISC specification.","structure":"One record per actual Element per subject","cls":"SPECIAL PURPOSE","purpose":"Tabulation","key_variables":"STUDYID, DOMAIN, USUBJID, SESEQ, SEGRPID, SEREFID","version":"1.0","status":"ACTIVE","updated_at":"2026-03-27T00:00:00.000Z","updated_by":"CDISC Standards Lead","change_reason":"Imported from SDTM IG"},{"study_id":"GLOBAL","standard":"SDTM","code":"SM","name":"Subject Disease Milestones","description":"Subject Disease Milestones domain per CDISC specification.","structure":"One record per Disease Milestone per subject","cls":"SPECIAL PURPOSE","purpose":"Tabulation","key_variables":"STUDYID, DOMAIN, USUBJID, SMSEQ, SMGRPID, SMREFID","version":"1.0","status":"ACTIVE","updated_at":"2026-03-27T00:00:00.000Z","updated_by":"CDISC Standards Lead","change_reason":"Imported from SDTM IG"},{"study_id":"GLOBAL","standard":"SDTM","code":"SV","name":"Subject Visits","description":"Subject Visits domain per CDISC specification.","structure":"One record per actual or planned visit per subject","cls":"SPECIAL PURPOSE","purpose":"Tabulation","key_variables":"STUDYID, DOMAIN, USUBJID, POOLID, SVSEQ, SVGRPID","version":"1.0","status":"ACTIVE","updated_at":"2026-03-27T00:00:00.000Z","updated_by":"CDISC Standards Lead","change_reason":"Imported from SDTM IG"},{"study_id":"GLOBAL","standard":"SDTM","code":"AP INTERVENTIONS","name":"Associated Persons Interventions","description":"Associated Persons Interventions domain per CDISC specification.","structure":"One record per constant-dosing interval or intervention episode per subject","cls":"INTERVENTIONS","purpose":"Tabulation","key_variables":"STUDYID, DOMAIN, USUBJID, APID, POOLID, SPDEVID","version":"1.0","status":"ACTIVE","updated_at":"2026-03-27T00:00:00.000Z","updated_by":"CDISC Standards Lead","change_reason":"Imported from SDTM IG"},{"study_id":"GLOBAL","standard":"SDTM","code":"INTERVENTIONS","name":"Interventions","description":"Interventions domain per CDISC specification.","structure":"One record per constant-dosing interval or intervention episode per subject","cls":"INTERVENTIONS","purpose":"Tabulation","key_variables":"STUDYID, DOMAIN, USUBJID, POOLID, SPDEVID, NHOID","version":"1.0","status":"ACTIVE","updated_at":"2026-03-27T00:00:00.000Z","updated_by":"CDISC Standards Lead","change_reason":"Imported from SDTM IG"},{"study_id":"GLOBAL","standard":"SDTM","code":"AG","name":"Procedure Agents","description":"Procedure Agents domain per CDISC specification.","structure":"One record per recorded intervention occurrence per subject","cls":"INTERVENTIONS","purpose":"Tabulation","key_variables":"STUDYID, DOMAIN, USUBJID, POOLID, SPDEVID, NHOID","version":"1.0","status":"ACTIVE","updated_at":"2026-03-27T00:00:00.000Z","updated_by":"CDISC Standards Lead","change_reason":"Imported from SDTM IG"},{"study_id":"GLOBAL","standard":"SDTM","code":"APAG","name":"Associated Persons for AG","description":"Associated Persons for AG domain per CDISC specification.","structure":"One record per recorded intervention occurrence per associated person","cls":"INTERVENTIONS","purpose":"Tabulation","key_variables":"STUDYID, DOMAIN, USUBJID, APID, POOLID, SPDEVID","version":"1.0","status":"ACTIVE","updated_at":"2026-03-27T00:00:00.000Z","updated_by":"CDISC Standards Lead","change_reason":"Imported from SDTM IG"},{"study_id":"GLOBAL","standard":"SDTM","code":"APCM","name":"Associated Persons for CM","description":"Associated Persons for CM domain per CDISC specification.","structure":"One record per recorded intervention occurrence or constant-dosing interval per associated person","cls":"INTERVENTIONS","purpose":"Tabulation","key_variables":"STUDYID, DOMAIN, USUBJID, APID, POOLID, SPDEVID","version":"1.0","status":"ACTIVE","updated_at":"2026-03-27T00:00:00.000Z","updated_by":"CDISC Standards Lead","change_reason":"Imported from SDTM IG"},{"study_id":"GLOBAL","standard":"SDTM","code":"APEC","name":"Associated Persons for EC","description":"Associated Persons for EC domain per CDISC specification.","structure":"One record per protocol-specified study treatment, collected-dosing interval, per associated person, per mood","cls":"INTERVENTIONS","purpose":"Tabulation","key_variables":"STUDYID, DOMAIN, USUBJID, APID, POOLID, SPDEVID","version":"1.0","status":"ACTIVE","updated_at":"2026-03-27T00:00:00.000Z","updated_by":"CDISC Standards Lead","change_reason":"Imported from SDTM IG"},{"study_id":"GLOBAL","standard":"SDTM","code":"APEX","name":"Associated Persons for EX","description":"Associated Persons for EX domain per CDISC specification.","structure":"One record per protocol-specified study treatment, constant-dosing interval, per associated person","cls":"INTERVENTIONS","purpose":"Tabulation","key_variables":"STUDYID, DOMAIN, USUBJID, APID, POOLID, SPDEVID","version":"1.0","status":"ACTIVE","updated_at":"2026-03-27T00:00:00.000Z","updated_by":"CDISC Standards Lead","change_reason":"Imported from SDTM IG"},{"study_id":"GLOBAL","standard":"SDTM","code":"APML","name":"Associated Persons for ML","description":"Associated Persons for ML domain per CDISC specification.","structure":"One record per food product occurrence or constant intake interval per associated person","cls":"INTERVENTIONS","purpose":"Tabulation","key_variables":"STUDYID, DOMAIN, USUBJID, APID, POOLID, SPDEVID","version":"1.0","status":"ACTIVE","updated_at":"2026-03-27T00:00:00.000Z","updated_by":"CDISC Standards Lead","change_reason":"Imported from SDTM IG"},{"study_id":"GLOBAL","standard":"SDTM","code":"APPR","name":"Associated Persons for PR","description":"Associated Persons for PR domain per CDISC specification.","structure":"One record per recorded procedure per occurrence per associated person","cls":"INTERVENTIONS","purpose":"Tabulation","key_variables":"STUDYID, DOMAIN, USUBJID, APID, POOLID, SPDEVID","version":"1.0","status":"ACTIVE","updated_at":"2026-03-27T00:00:00.000Z","updated_by":"CDISC Standards Lead","change_reason":"Imported from SDTM IG"},{"study_id":"GLOBAL","standard":"SDTM","code":"APSU","name":"Associated Persons for SU","description":"Associated Persons for SU domain per CDISC specification.","structure":"One record per substance type per reported occurrence per associated person","cls":"INTERVENTIONS","purpose":"Tabulation","key_variables":"STUDYID, DOMAIN, USUBJID, APID, POOLID, SPDEVID","version":"1.0","status":"ACTIVE","updated_at":"2026-03-27T00:00:00.000Z","updated_by":"CDISC Standards Lead","change_reason":"Imported from SDTM IG"},{"study_id":"GLOBAL","standard":"SDTM","code":"CM","name":"Concomitant/Prior Medications","description":"Concomitant/Prior Medications domain per CDISC specification.","structure":"One record per recorded intervention occurrence or constant-dosing interval per subject","cls":"INTERVENTIONS","purpose":"Tabulation","key_variables":"STUDYID, DOMAIN, USUBJID, POOLID, SPDEVID, NHOID","version":"1.0","status":"ACTIVE","updated_at":"2026-03-27T00:00:00.000Z","updated_by":"CDISC Standards Lead","change_reason":"Imported from SDTM IG"},{"study_id":"GLOBAL","standard":"SDTM","code":"DX","name":"Device Exposure","description":"Device Exposure domain per CDISC specification.","structure":"One record per recorded intervention occurrence or constant treatment interval per subject","cls":"INTERVENTIONS","purpose":"Tabulation","key_variables":"STUDYID, DOMAIN, USUBJID, POOLID, SPDEVID, NHOID","version":"1.0","status":"ACTIVE","updated_at":"2026-03-27T00:00:00.000Z","updated_by":"CDISC Standards Lead","change_reason":"Imported from SDTM IG"},{"study_id":"GLOBAL","standard":"SDTM","code":"EC","name":"Exposure as Collected","description":"Exposure as Collected domain per CDISC specification.","structure":"One record per protocol-specified study treatment, collected-dosing interval, per subject, per mood","cls":"INTERVENTIONS","purpose":"Tabulation","key_variables":"STUDYID, DOMAIN, USUBJID, POOLID, SPDEVID, NHOID","version":"1.0","status":"ACTIVE","updated_at":"2026-03-27T00:00:00.000Z","updated_by":"CDISC Standards Lead","change_reason":"Imported from SDTM IG"},{"study_id":"GLOBAL","standard":"SDTM","code":"EX","name":"Exposure","description":"Exposure domain per CDISC specification.","structure":"One record per protocol-specified study treatment, constant-dosing interval, per subject","cls":"INTERVENTIONS","purpose":"Tabulation","key_variables":"STUDYID, DOMAIN, USUBJID, POOLID, SPDEVID, NHOID","version":"1.0","status":"ACTIVE","updated_at":"2026-03-27T00:00:00.000Z","updated_by":"CDISC Standards Lead","change_reason":"Imported from SDTM IG"},{"study_id":"GLOBAL","standard":"SDTM","code":"ML","name":"Meal Data","description":"Meal Data domain per CDISC specification.","structure":"One record per food product occurrence or constant intake interval per subject","cls":"INTERVENTIONS","purpose":"Tabulation","key_variables":"STUDYID, DOMAIN, USUBJID, POOLID, SPDEVID, NHOID","version":"1.0","status":"ACTIVE","updated_at":"2026-03-27T00:00:00.000Z","updated_by":"CDISC Standards Lead","change_reason":"Imported from SDTM IG"},{"study_id":"GLOBAL","standard":"SDTM","code":"PR","name":"Procedures","description":"Procedures domain per CDISC specification.","structure":"One record per recorded procedure per occurrence per subject","cls":"INTERVENTIONS","purpose":"Tabulation","key_variables":"STUDYID, DOMAIN, USUBJID, POOLID, SPDEVID, NHOID","version":"1.0","status":"ACTIVE","updated_at":"2026-03-27T00:00:00.000Z","updated_by":"CDISC Standards Lead","change_reason":"Imported from SDTM IG"},{"study_id":"GLOBAL","standard":"SDTM","code":"SU","name":"Substance Use","description":"Substance Use domain per CDISC specification.","structure":"One record per substance type per reported occurrence per subject","cls":"INTERVENTIONS","purpose":"Tabulation","key_variables":"STUDYID, DOMAIN, USUBJID, POOLID, SPDEVID, NHOID","version":"1.0","status":"ACTIVE","updated_at":"2026-03-27T00:00:00.000Z","updated_by":"CDISC Standards Lead","change_reason":"Imported from SDTM IG"},{"study_id":"GLOBAL","standard":"SDTM","code":"AP EVENTS","name":"Associated Persons Events","description":"Associated Persons Events domain per CDISC specification.","structure":"One record per event per subject","cls":"EVENTS","purpose":"Tabulation","key_variables":"STUDYID, DOMAIN, USUBJID, APID, POOLID, SPDEVID","version":"1.0","status":"ACTIVE","updated_at":"2026-03-27T00:00:00.000Z","updated_by":"CDISC Standards Lead","change_reason":"Imported from SDTM IG"},{"study_id":"GLOBAL","standard":"SDTM","code":"EVENTS","name":"Events","description":"Events domain per CDISC specification.","structure":"One record per event per subject","cls":"EVENTS","purpose":"Tabulation","key_variables":"STUDYID, DOMAIN, USUBJID, POOLID, SPDEVID, NHOID","version":"1.0","status":"ACTIVE","updated_at":"2026-03-27T00:00:00.000Z","updated_by":"CDISC Standards Lead","change_reason":"Imported from SDTM IG"},{"study_id":"GLOBAL","standard":"SDTM","code":"AE","name":"Adverse Events","description":"Adverse Events domain per CDISC specification.","structure":"One record per adverse event per subject","cls":"EVENTS","purpose":"Tabulation","key_variables":"STUDYID, DOMAIN, USUBJID, POOLID, SPDEVID, NHOID","version":"1.0","status":"ACTIVE","updated_at":"2026-03-27T00:00:00.000Z","updated_by":"CDISC Standards Lead","change_reason":"Imported from SDTM IG"},{"study_id":"GLOBAL","standard":"SDTM","code":"APAE","name":"Associated Persons for AE","description":"Associated Persons for AE domain per CDISC specification.","structure":"One record per adverse event per associated person","cls":"EVENTS","purpose":"Tabulation","key_variables":"STUDYID, DOMAIN, USUBJID, APID, POOLID, SPDEVID","version":"1.0","status":"ACTIVE","updated_at":"2026-03-27T00:00:00.000Z","updated_by":"CDISC Standards Lead","change_reason":"Imported from SDTM IG"},{"study_id":"GLOBAL","standard":"SDTM","code":"APBE","name":"Associated Persons for BS","description":"Associated Persons for BS domain per CDISC specification.","structure":"One record per instance per biospecimen event per biospecimen identifier per associated person","cls":"EVENTS","purpose":"Tabulation","key_variables":"STUDYID, DOMAIN, USUBJID, APID, POOLID, SPDEVID","version":"1.0","status":"ACTIVE","updated_at":"2026-03-27T00:00:00.000Z","updated_by":"CDISC Standards Lead","change_reason":"Imported from SDTM IG"},{"study_id":"GLOBAL","standard":"SDTM","code":"APCE","name":"Associated Persons for CE","description":"Associated Persons for CE domain per CDISC specification.","structure":"One record per event per associated person","cls":"EVENTS","purpose":"Tabulation","key_variables":"STUDYID, DOMAIN, USUBJID, APID, POOLID, SPDEVID","version":"1.0","status":"ACTIVE","updated_at":"2026-03-27T00:00:00.000Z","updated_by":"CDISC Standards Lead","change_reason":"Imported from SDTM IG"},{"study_id":"GLOBAL","standard":"SDTM","code":"APDS","name":"Associated Persons for DS","description":"Associated Persons for DS domain per CDISC specification.","structure":"One record per disposition status or protocol milestone per associated person","cls":"EVENTS","purpose":"Tabulation","key_variables":"STUDYID, DOMAIN, USUBJID, APID, POOLID, SPDEVID","version":"1.0","status":"ACTIVE","updated_at":"2026-03-27T00:00:00.000Z","updated_by":"CDISC Standards Lead","change_reason":"Imported from SDTM IG"},{"study_id":"GLOBAL","standard":"SDTM","code":"APDV","name":"Associated Persons for DV","description":"Associated Persons for DV domain per CDISC specification.","structure":"One record per protocol deviation per associated person","cls":"EVENTS","purpose":"Tabulation","key_variables":"STUDYID, DOMAIN, USUBJID, APID, POOLID, SPDEVID","version":"1.0","status":"ACTIVE","updated_at":"2026-03-27T00:00:00.000Z","updated_by":"CDISC Standards Lead","change_reason":"Imported from SDTM IG"},{"study_id":"GLOBAL","standard":"SDTM","code":"APHO","name":"Associated Persons for HO","description":"Associated Persons for HO domain per CDISC specification.","structure":"One record per healthcare encounter per associated person","cls":"EVENTS","purpose":"Tabulation","key_variables":"STUDYID, DOMAIN, USUBJID, APID, POOLID, SPDEVID","version":"1.0","status":"ACTIVE","updated_at":"2026-03-27T00:00:00.000Z","updated_by":"CDISC Standards Lead","change_reason":"Imported from SDTM IG"},{"study_id":"GLOBAL","standard":"SDTM","code":"APMH","name":"Associated Persons for MH","description":"Associated Persons for MH domain per CDISC specification.","structure":"One record per medical history event per associated person","cls":"EVENTS","purpose":"Tabulation","key_variables":"STUDYID, DOMAIN, USUBJID, APID, POOLID, SPDEVID","version":"1.0","status":"ACTIVE","updated_at":"2026-03-27T00:00:00.000Z","updated_by":"CDISC Standards Lead","change_reason":"Imported from SDTM IG"},{"study_id":"GLOBAL","standard":"SDTM","code":"BE","name":"Biospecimen Events","description":"Biospecimen Events domain per CDISC specification.","structure":"One record per instance per biospecimen event per biospecimen identifier per subject","cls":"EVENTS","purpose":"Tabulation","key_variables":"STUDYID, DOMAIN, USUBJID, POOLID, SPDEVID, NHOID","version":"1.0","status":"ACTIVE","updated_at":"2026-03-27T00:00:00.000Z","updated_by":"CDISC Standards Lead","change_reason":"Imported from SDTM IG"},{"study_id":"GLOBAL","standard":"SDTM","code":"CE","name":"Clinical Events","description":"Clinical Events domain per CDISC specification.","structure":"One record per event per subject","cls":"EVENTS","purpose":"Tabulation","key_variables":"STUDYID, DOMAIN, USUBJID, POOLID, SPDEVID, NHOID","version":"1.0","status":"ACTIVE","updated_at":"2026-03-27T00:00:00.000Z","updated_by":"CDISC Standards Lead","change_reason":"Imported from SDTM IG"},{"study_id":"GLOBAL","standard":"SDTM","code":"DE","name":"Device Events","description":"Device Events domain per CDISC specification.","structure":"One record per event per device","cls":"EVENTS","purpose":"Tabulation","key_variables":"STUDYID, DOMAIN, USUBJID, POOLID, SPDEVID, NHOID","version":"1.0","status":"ACTIVE","updated_at":"2026-03-27T00:00:00.000Z","updated_by":"CDISC Standards Lead","change_reason":"Imported from SDTM IG"},{"study_id":"GLOBAL","standard":"SDTM","code":"DS","name":"Disposition","description":"Disposition domain per CDISC specification.","structure":"One record per disposition status or protocol milestone per subject","cls":"EVENTS","purpose":"Tabulation","key_variables":"STUDYID, DOMAIN, USUBJID, POOLID, SPDEVID, NHOID","version":"1.0","status":"ACTIVE","updated_at":"2026-03-27T00:00:00.000Z","updated_by":"CDISC Standards Lead","change_reason":"Imported from SDTM IG"},{"study_id":"GLOBAL","standard":"SDTM","code":"DT","name":"Device Tracking and Disposition","description":"Device Tracking and Disposition domain per CDISC specification.","structure":"One record per device tracking event","cls":"EVENTS","purpose":"Tabulation","key_variables":"STUDYID, DOMAIN, USUBJID, POOLID, SPDEVID, NHOID","version":"1.0","status":"ACTIVE","updated_at":"2026-03-27T00:00:00.000Z","updated_by":"CDISC Standards Lead","change_reason":"Imported from SDTM IG"},{"study_id":"GLOBAL","standard":"SDTM","code":"DV","name":"Protocol Deviations","description":"Protocol Deviations domain per CDISC specification.","structure":"One record per protocol deviation per subject","cls":"EVENTS","purpose":"Tabulation","key_variables":"STUDYID, DOMAIN, USUBJID, POOLID, SPDEVID, NHOID","version":"1.0","status":"ACTIVE","updated_at":"2026-03-27T00:00:00.000Z","updated_by":"CDISC Standards Lead","change_reason":"Imported from SDTM IG"},{"study_id":"GLOBAL","standard":"SDTM","code":"HO","name":"Healthcare Encounters","description":"Healthcare Encounters domain per CDISC specification.","structure":"One record per healthcare encounter per subject","cls":"EVENTS","purpose":"Tabulation","key_variables":"STUDYID, DOMAIN, USUBJID, POOLID, SPDEVID, NHOID","version":"1.0","status":"ACTIVE","updated_at":"2026-03-27T00:00:00.000Z","updated_by":"CDISC Standards Lead","change_reason":"Imported from SDTM IG"},{"study_id":"GLOBAL","standard":"SDTM","code":"MH","name":"Medical History","description":"Medical History domain per CDISC specification.","structure":"One record per medical history event per subject","cls":"EVENTS","purpose":"Tabulation","key_variables":"STUDYID, DOMAIN, USUBJID, POOLID, SPDEVID, NHOID","version":"1.0","status":"ACTIVE","updated_at":"2026-03-27T00:00:00.000Z","updated_by":"CDISC Standards Lead","change_reason":"Imported from SDTM IG"},{"study_id":"GLOBAL","standard":"SDTM","code":"AP FINDINGS","name":"Associated Persons Findings","description":"Associated Persons Findings domain per CDISC specification.","structure":"One record per finding per subject","cls":"FINDINGS","purpose":"Tabulation","key_variables":"STUDYID, DOMAIN, USUBJID, APID, POOLID, SPDEVID","version":"1.0","status":"ACTIVE","updated_at":"2026-03-27T00:00:00.000Z","updated_by":"CDISC Standards Lead","change_reason":"Imported from SDTM IG"},{"study_id":"GLOBAL","standard":"SDTM","code":"FINDINGS","name":"Findings","description":"Findings domain per CDISC specification.","structure":"One record per finding per subject","cls":"FINDINGS","purpose":"Tabulation","key_variables":"STUDYID, DOMAIN, USUBJID, POOLID, SPDEVID, NHOID","version":"1.0","status":"ACTIVE","updated_at":"2026-03-27T00:00:00.000Z","updated_by":"CDISC Standards Lead","change_reason":"Imported from SDTM IG"},{"study_id":"GLOBAL","standard":"SDTM","code":"APBS","name":"Associated Persons for BS","description":"Associated Persons for BS domain per CDISC specification.","structure":"One record per measurement per biospecimen identifier per associated person","cls":"FINDINGS","purpose":"Tabulation","key_variables":"STUDYID, DOMAIN, USUBJID, APID, POOLID, SPDEVID","version":"1.0","status":"ACTIVE","updated_at":"2026-03-27T00:00:00.000Z","updated_by":"CDISC Standards Lead","change_reason":"Imported from SDTM IG"},{"study_id":"GLOBAL","standard":"SDTM","code":"APCP","name":"Associated Persons for CP","description":"Associated Persons for CP domain per CDISC specification.","structure":"One record per test per specimen per timepoint per visit per associated person","cls":"FINDINGS","purpose":"Tabulation","key_variables":"STUDYID, DOMAIN, USUBJID, APID, POOLID, SPDEVID","version":"1.0","status":"ACTIVE","updated_at":"2026-03-27T00:00:00.000Z","updated_by":"CDISC Standards Lead","change_reason":"Imported from SDTM IG"},{"study_id":"GLOBAL","standard":"SDTM","code":"APCV","name":"Associated Persons for CV","description":"Associated Persons for CV domain per CDISC specification.","structure":"One record per finding or result per time point per visit per associated person","cls":"FINDINGS","purpose":"Tabulation","key_variables":"STUDYID, DOMAIN, USUBJID, APID, POOLID, SPDEVID","version":"1.0","status":"ACTIVE","updated_at":"2026-03-27T00:00:00.000Z","updated_by":"CDISC Standards Lead","change_reason":"Imported from SDTM IG"},{"study_id":"GLOBAL","standard":"SDTM","code":"APDA","name":"Associated Persons for DA","description":"Associated Persons for DA domain per CDISC specification.","structure":"One record per product accountability finding per associated person","cls":"FINDINGS","purpose":"Tabulation","key_variables":"STUDYID, DOMAIN, USUBJID, APID, POOLID, SPDEVID","version":"1.0","status":"ACTIVE","updated_at":"2026-03-27T00:00:00.000Z","updated_by":"CDISC Standards Lead","change_reason":"Imported from SDTM IG"},{"study_id":"GLOBAL","standard":"SDTM","code":"APDD","name":"Associated Persons for DD","description":"Associated Persons for DD domain per CDISC specification.","structure":"One record per finding per associated person","cls":"FINDINGS","purpose":"Tabulation","key_variables":"STUDYID, DOMAIN, USUBJID, APID, POOLID, SPDEVID","version":"1.0","status":"ACTIVE","updated_at":"2026-03-27T00:00:00.000Z","updated_by":"CDISC Standards Lead","change_reason":"Imported from SDTM IG"},{"study_id":"GLOBAL","standard":"SDTM","code":"APEG","name":"Associated Persons for EG","description":"Associated Persons for EG domain per CDISC specification.","structure":"One record per ECG observation per replicate per time point or one record per ECG observation per beat per visit per associated person","cls":"FINDINGS","purpose":"Tabulation","key_variables":"STUDYID, DOMAIN, USUBJID, APID, POOLID, SPDEVID","version":"1.0","status":"ACTIVE","updated_at":"2026-03-27T00:00:00.000Z","updated_by":"CDISC Standards Lead","change_reason":"Imported from SDTM IG"},{"study_id":"GLOBAL","standard":"SDTM","code":"APFT","name":"Associated Persons for FT","description":"Associated Persons for FT domain per CDISC specification.","structure":"One record per Functional Test finding per time point per visit per associated person","cls":"FINDINGS","purpose":"Tabulation","key_variables":"STUDYID, DOMAIN, USUBJID, APID, POOLID, SPDEVID","version":"1.0","status":"ACTIVE","updated_at":"2026-03-27T00:00:00.000Z","updated_by":"CDISC Standards Lead","change_reason":"Imported from SDTM IG"},{"study_id":"GLOBAL","standard":"SDTM","code":"APGF","name":"Associated Persons for GF","description":"Associated Persons for GF domain per CDISC specification.","structure":"One record per finding per observation per biospecimen per associated person","cls":"FINDINGS","purpose":"Tabulation","key_variables":"STUDYID, DOMAIN, USUBJID, APID, POOLID, SPDEVID","version":"1.0","status":"ACTIVE","updated_at":"2026-03-27T00:00:00.000Z","updated_by":"CDISC Standards Lead","change_reason":"Imported from SDTM IG"},{"study_id":"GLOBAL","standard":"SDTM","code":"APIE","name":"Associated Persons for IE","description":"Associated Persons for IE domain per CDISC specification.","structure":"One record per inclusion/exclusion criterion not met per associated person","cls":"FINDINGS","purpose":"Tabulation","key_variables":"STUDYID, DOMAIN, USUBJID, APID, POOLID, SPDEVID","version":"1.0","status":"ACTIVE","updated_at":"2026-03-27T00:00:00.000Z","updated_by":"CDISC Standards Lead","change_reason":"Imported from SDTM IG"},{"study_id":"GLOBAL","standard":"SDTM","code":"APIS","name":"Associated Persons for IS","description":"Associated Persons for IS domain per CDISC specification.","structure":"One record per test per visit per associated person","cls":"FINDINGS","purpose":"Tabulation","key_variables":"STUDYID, DOMAIN, USUBJID, APID, POOLID, SPDEVID","version":"1.0","status":"ACTIVE","updated_at":"2026-03-27T00:00:00.000Z","updated_by":"CDISC Standards Lead","change_reason":"Imported from SDTM IG"},{"study_id":"GLOBAL","standard":"SDTM","code":"APLB","name":"Associated Persons for LB","description":"Associated Persons for LB domain per CDISC specification.","structure":"One record per lab test per time point per visit per associated person","cls":"FINDINGS","purpose":"Tabulation","key_variables":"STUDYID, DOMAIN, USUBJID, APID, POOLID, SPDEVID","version":"1.0","status":"ACTIVE","updated_at":"2026-03-27T00:00:00.000Z","updated_by":"CDISC Standards Lead","change_reason":"Imported from SDTM IG"},{"study_id":"GLOBAL","standard":"SDTM","code":"APLC","name":"Associated Persons for LC","description":"Associated Persons for LC domain per CDISC specification.","structure":"One record per lab test per time point per visit per associated person","cls":"FINDINGS","purpose":"Tabulation","key_variables":"STUDYID, DOMAIN, USUBJID, APID, POOLID, SPDEVID","version":"1.0","status":"ACTIVE","updated_at":"2026-03-27T00:00:00.000Z","updated_by":"CDISC Standards Lead","change_reason":"Imported from SDTM IG"},{"study_id":"GLOBAL","standard":"SDTM","code":"APMB","name":"Associated Persons for MB","description":"Associated Persons for MB domain per CDISC specification.","structure":"One record per microbiology specimen finding per time point per visit per associated person","cls":"FINDINGS","purpose":"Tabulation","key_variables":"STUDYID, DOMAIN, USUBJID, APID, POOLID, SPDEVID","version":"1.0","status":"ACTIVE","updated_at":"2026-03-27T00:00:00.000Z","updated_by":"CDISC Standards Lead","change_reason":"Imported from SDTM IG"},{"study_id":"GLOBAL","standard":"SDTM","code":"APMI","name":"Associated Persons for MI","description":"Associated Persons for MI domain per CDISC specification.","structure":"One record per finding per specimen per associated person","cls":"FINDINGS","purpose":"Tabulation","key_variables":"STUDYID, DOMAIN, USUBJID, APID, POOLID, SPDEVID","version":"1.0","status":"ACTIVE","updated_at":"2026-03-27T00:00:00.000Z","updated_by":"CDISC Standards Lead","change_reason":"Imported from SDTM IG"},{"study_id":"GLOBAL","standard":"SDTM","code":"APMK","name":"Associated Persons for MK","description":"Associated Persons for MK domain per CDISC specification.","structure":"One record per assessment per visit per associated person","cls":"FINDINGS","purpose":"Tabulation","key_variables":"STUDYID, DOMAIN, USUBJID, APID, POOLID, SPDEVID","version":"1.0","status":"ACTIVE","updated_at":"2026-03-27T00:00:00.000Z","updated_by":"CDISC Standards Lead","change_reason":"Imported from SDTM IG"},{"study_id":"GLOBAL","standard":"SDTM","code":"APMS","name":"Associated Persons for MS","description":"Associated Persons for MS domain per CDISC specification.","structure":"One record per microbiology susceptibility test (or other organism-related finding) per organism found in MB","cls":"FINDINGS","purpose":"Tabulation","key_variables":"STUDYID, DOMAIN, USUBJID, APID, POOLID, SPDEVID","version":"1.0","status":"ACTIVE","updated_at":"2026-03-27T00:00:00.000Z","updated_by":"CDISC Standards Lead","change_reason":"Imported from SDTM IG"},{"study_id":"GLOBAL","standard":"SDTM","code":"APNV","name":"Associated Persons for NV","description":"Associated Persons for NV domain per CDISC specification.","structure":"One record per finding per location per time point per visit per associated person","cls":"FINDINGS","purpose":"Tabulation","key_variables":"STUDYID, DOMAIN, USUBJID, APID, POOLID, SPDEVID","version":"1.0","status":"ACTIVE","updated_at":"2026-03-27T00:00:00.000Z","updated_by":"CDISC Standards Lead","change_reason":"Imported from SDTM IG"},{"study_id":"GLOBAL","standard":"SDTM","code":"APOE","name":"Associated Persons for OE","description":"Associated Persons for OE domain per CDISC specification.","structure":"One record per ophthalmic finding per method per location, per time point per visit per associated person","cls":"FINDINGS","purpose":"Tabulation","key_variables":"STUDYID, DOMAIN, USUBJID, APID, POOLID, SPDEVID","version":"1.0","status":"ACTIVE","updated_at":"2026-03-27T00:00:00.000Z","updated_by":"CDISC Standards Lead","change_reason":"Imported from SDTM IG"},{"study_id":"GLOBAL","standard":"SDTM","code":"APPC","name":"Associated Persons for PC","description":"Associated Persons for PC domain per CDISC specification.","structure":"One record per sample characteristic or time-point concentration per reference time point or per analyte per associated person","cls":"FINDINGS","purpose":"Tabulation","key_variables":"STUDYID, DOMAIN, USUBJID, APID, POOLID, SPDEVID","version":"1.0","status":"ACTIVE","updated_at":"2026-03-27T00:00:00.000Z","updated_by":"CDISC Standards Lead","change_reason":"Imported from SDTM IG"},{"study_id":"GLOBAL","standard":"SDTM","code":"APPE","name":"Associated Persons for PE","description":"Associated Persons for PE domain per CDISC specification.","structure":"One record per body system or abnormality per visit per associated person","cls":"FINDINGS","purpose":"Tabulation","key_variables":"STUDYID, DOMAIN, USUBJID, APID, POOLID, SPDEVID","version":"1.0","status":"ACTIVE","updated_at":"2026-03-27T00:00:00.000Z","updated_by":"CDISC Standards Lead","change_reason":"Imported from SDTM IG"},{"study_id":"GLOBAL","standard":"SDTM","code":"APPP","name":"Associated Persons for PP","description":"Associated Persons for PP domain per CDISC specification.","structure":"One record per PK parameter per time-concentration profile per modeling method per associated person","cls":"FINDINGS","purpose":"Tabulation","key_variables":"STUDYID, DOMAIN, USUBJID, APID, POOLID, SPDEVID","version":"1.0","status":"ACTIVE","updated_at":"2026-03-27T00:00:00.000Z","updated_by":"CDISC Standards Lead","change_reason":"Imported from SDTM IG"},{"study_id":"GLOBAL","standard":"SDTM","code":"APQS","name":"Associated Persons for QS","description":"Associated Persons for QS domain per CDISC specification.","structure":"One record per questionnaire per question per time point per visit per associated person","cls":"FINDINGS","purpose":"Tabulation","key_variables":"STUDYID, DOMAIN, USUBJID, APID, POOLID, SPDEVID","version":"1.0","status":"ACTIVE","updated_at":"2026-03-27T00:00:00.000Z","updated_by":"CDISC Standards Lead","change_reason":"Imported from SDTM IG"},{"study_id":"GLOBAL","standard":"SDTM","code":"APRE","name":"Associated Persons for RE","description":"Associated Persons for RE domain per CDISC specification.","structure":"One record per finding or result per time point per visit per associated person","cls":"FINDINGS","purpose":"Tabulation","key_variables":"STUDYID, DOMAIN, USUBJID, APID, POOLID, SPDEVID","version":"1.0","status":"ACTIVE","updated_at":"2026-03-27T00:00:00.000Z","updated_by":"CDISC Standards Lead","change_reason":"Imported from SDTM IG"},{"study_id":"GLOBAL","standard":"SDTM","code":"APRP","name":"Associated Persons for RP","description":"Associated Persons for RP domain per CDISC specification.","structure":"One record per finding or result per time point per visit per associated person","cls":"FINDINGS","purpose":"Tabulation","key_variables":"STUDYID, DOMAIN, USUBJID, APID, POOLID, SPDEVID","version":"1.0","status":"ACTIVE","updated_at":"2026-03-27T00:00:00.000Z","updated_by":"CDISC Standards Lead","change_reason":"Imported from SDTM IG"},{"study_id":"GLOBAL","standard":"SDTM","code":"APRS","name":"Associated Persons for RS","description":"Associated Persons for RS domain per CDISC specification.","structure":"One record per response assessment or clinical classification assessment per time point per visit per associated person per assessor per medical evaluator","cls":"FINDINGS","purpose":"Tabulation","key_variables":"STUDYID, DOMAIN, USUBJID, APID, POOLID, SPDEVID","version":"1.0","status":"ACTIVE","updated_at":"2026-03-27T00:00:00.000Z","updated_by":"CDISC Standards Lead","change_reason":"Imported from SDTM IG"},{"study_id":"GLOBAL","standard":"SDTM","code":"APSC","name":"Associated Persons for SC","description":"Associated Persons for SC domain per CDISC specification.","structure":"One record per characteristic per visit per associated person","cls":"FINDINGS","purpose":"Tabulation","key_variables":"STUDYID, DOMAIN, USUBJID, APID, POOLID, SPDEVID","version":"1.0","status":"ACTIVE","updated_at":"2026-03-27T00:00:00.000Z","updated_by":"CDISC Standards Lead","change_reason":"Imported from SDTM IG"},{"study_id":"GLOBAL","standard":"SDTM","code":"APSS","name":"Associated Persons for SS","description":"Associated Persons for SS domain per CDISC specification.","structure":"One record per status per visit per associated person","cls":"FINDINGS","purpose":"Tabulation","key_variables":"STUDYID, DOMAIN, USUBJID, APID, POOLID, SPDEVID","version":"1.0","status":"ACTIVE","updated_at":"2026-03-27T00:00:00.000Z","updated_by":"CDISC Standards Lead","change_reason":"Imported from SDTM IG"},{"study_id":"GLOBAL","standard":"SDTM","code":"APTR","name":"Associated Persons for TR","description":"Associated Persons for TR domain per CDISC specification.","structure":"One record per tumor measurement/assessment per visit per associated person per assessor","cls":"FINDINGS","purpose":"Tabulation","key_variables":"STUDYID, DOMAIN, USUBJID, APID, POOLID, SPDEVID","version":"1.0","status":"ACTIVE","updated_at":"2026-03-27T00:00:00.000Z","updated_by":"CDISC Standards Lead","change_reason":"Imported from SDTM IG"},{"study_id":"GLOBAL","standard":"SDTM","code":"APTU","name":"Associated Persons for TU","description":"Associated Persons for TU domain per CDISC specification.","structure":"One record per identified tumor per associated person per assessor","cls":"FINDINGS","purpose":"Tabulation","key_variables":"STUDYID, DOMAIN, USUBJID, APID, POOLID, SPDEVID","version":"1.0","status":"ACTIVE","updated_at":"2026-03-27T00:00:00.000Z","updated_by":"CDISC Standards Lead","change_reason":"Imported from SDTM IG"},{"study_id":"GLOBAL","standard":"SDTM","code":"APUR","name":"Associated Persons for UR","description":"Associated Persons for UR domain per CDISC specification.","structure":"One record per finding per location per per visit per associated person","cls":"FINDINGS","purpose":"Tabulation","key_variables":"STUDYID, DOMAIN, USUBJID, APID, POOLID, SPDEVID","version":"1.0","status":"ACTIVE","updated_at":"2026-03-27T00:00:00.000Z","updated_by":"CDISC Standards Lead","change_reason":"Imported from SDTM IG"},{"study_id":"GLOBAL","standard":"SDTM","code":"APVS","name":"Associated Persons for VS","description":"Associated Persons for VS domain per CDISC specification.","structure":"One record per vital sign measurement per time point per visit per associated person","cls":"FINDINGS","purpose":"Tabulation","key_variables":"STUDYID, DOMAIN, USUBJID, APID, POOLID, SPDEVID","version":"1.0","status":"ACTIVE","updated_at":"2026-03-27T00:00:00.000Z","updated_by":"CDISC Standards Lead","change_reason":"Imported from SDTM IG"},{"study_id":"GLOBAL","standard":"SDTM","code":"BS","name":"Biospecimen Findings","description":"Biospecimen Findings domain per CDISC specification.","structure":"One record per measurement per biospecimen identifier per subject","cls":"FINDINGS","purpose":"Tabulation","key_variables":"STUDYID, DOMAIN, USUBJID, POOLID, SPDEVID, NHOID","version":"1.0","status":"ACTIVE","updated_at":"2026-03-27T00:00:00.000Z","updated_by":"CDISC Standards Lead","change_reason":"Imported from SDTM IG"},{"study_id":"GLOBAL","standard":"SDTM","code":"CP","name":"Cell Phenotype Findings","description":"Cell Phenotype Findings domain per CDISC specification.","structure":"One record per test per specimen per timepoint per visit per subject","cls":"FINDINGS","purpose":"Tabulation","key_variables":"STUDYID, DOMAIN, USUBJID, POOLID, SPDEVID, NHOID","version":"1.0","status":"ACTIVE","updated_at":"2026-03-27T00:00:00.000Z","updated_by":"CDISC Standards Lead","change_reason":"Imported from SDTM IG"},{"study_id":"GLOBAL","standard":"SDTM","code":"CV","name":"Cardiovascular System Findings","description":"Cardiovascular System Findings domain per CDISC specification.","structure":"One record per finding or result per time point per visit per subject","cls":"FINDINGS","purpose":"Tabulation","key_variables":"STUDYID, DOMAIN, USUBJID, POOLID, SPDEVID, NHOID","version":"1.0","status":"ACTIVE","updated_at":"2026-03-27T00:00:00.000Z","updated_by":"CDISC Standards Lead","change_reason":"Imported from SDTM IG"},{"study_id":"GLOBAL","standard":"SDTM","code":"DA","name":"Product Accountability","description":"Product Accountability domain per CDISC specification.","structure":"One record per product accountability finding per subject","cls":"FINDINGS","purpose":"Tabulation","key_variables":"STUDYID, DOMAIN, USUBJID, POOLID, SPDEVID, NHOID","version":"1.0","status":"ACTIVE","updated_at":"2026-03-27T00:00:00.000Z","updated_by":"CDISC Standards Lead","change_reason":"Imported from SDTM IG"},{"study_id":"GLOBAL","standard":"SDTM","code":"DD","name":"Death Details","description":"Death Details domain per CDISC specification.","structure":"One record per finding per subject","cls":"FINDINGS","purpose":"Tabulation","key_variables":"STUDYID, DOMAIN, USUBJID, POOLID, SPDEVID, NHOID","version":"1.0","status":"ACTIVE","updated_at":"2026-03-27T00:00:00.000Z","updated_by":"CDISC Standards Lead","change_reason":"Imported from SDTM IG"},{"study_id":"GLOBAL","standard":"SDTM","code":"DO","name":"Device Properties","description":"Device Properties domain per CDISC specification.","structure":"One record per property per device","cls":"FINDINGS","purpose":"Tabulation","key_variables":"STUDYID, DOMAIN, USUBJID, POOLID, SPDEVID, NHOID","version":"1.0","status":"ACTIVE","updated_at":"2026-03-27T00:00:00.000Z","updated_by":"CDISC Standards Lead","change_reason":"Imported from SDTM IG"},{"study_id":"GLOBAL","standard":"SDTM","code":"DU","name":"Device In-Use","description":"Device In-Use domain per CDISC specification.","structure":"One record per property or setting per time point per visit or test date per subject","cls":"FINDINGS","purpose":"Tabulation","key_variables":"STUDYID, DOMAIN, USUBJID, POOLID, SPDEVID, NHOID","version":"1.0","status":"ACTIVE","updated_at":"2026-03-27T00:00:00.000Z","updated_by":"CDISC Standards Lead","change_reason":"Imported from SDTM IG"},{"study_id":"GLOBAL","standard":"SDTM","code":"EG","name":"ECG Test Results","description":"ECG Test Results domain per CDISC specification.","structure":"One record per ECG observation per replicate per time point or one record per ECG observation per beat per visit per subject","cls":"FINDINGS","purpose":"Tabulation","key_variables":"STUDYID, DOMAIN, USUBJID, POOLID, SPDEVID, NHOID","version":"1.0","status":"ACTIVE","updated_at":"2026-03-27T00:00:00.000Z","updated_by":"CDISC Standards Lead","change_reason":"Imported from SDTM IG"},{"study_id":"GLOBAL","standard":"SDTM","code":"FT","name":"Functional Tests","description":"Functional Tests domain per CDISC specification.","structure":"One record per Functional Test finding per time point per visit per subject","cls":"FINDINGS","purpose":"Tabulation","key_variables":"STUDYID, DOMAIN, USUBJID, POOLID, SPDEVID, NHOID","version":"1.0","status":"ACTIVE","updated_at":"2026-03-27T00:00:00.000Z","updated_by":"CDISC Standards Lead","change_reason":"Imported from SDTM IG"},{"study_id":"GLOBAL","standard":"SDTM","code":"GF","name":"Genomics Findings","description":"Genomics Findings domain per CDISC specification.","structure":"One record per finding per observation per biospecimen per subject","cls":"FINDINGS","purpose":"Tabulation","key_variables":"STUDYID, DOMAIN, USUBJID, POOLID, SPDEVID, NHOID","version":"1.0","status":"ACTIVE","updated_at":"2026-03-27T00:00:00.000Z","updated_by":"CDISC Standards Lead","change_reason":"Imported from SDTM IG"},{"study_id":"GLOBAL","standard":"SDTM","code":"IE","name":"Inclusion/Exclusion Criteria Not Met","description":"Inclusion/Exclusion Criteria Not Met domain per CDISC specification.","structure":"One record per inclusion/exclusion criterion not met per subject","cls":"FINDINGS","purpose":"Tabulation","key_variables":"STUDYID, DOMAIN, USUBJID, POOLID, SPDEVID, NHOID","version":"1.0","status":"ACTIVE","updated_at":"2026-03-27T00:00:00.000Z","updated_by":"CDISC Standards Lead","change_reason":"Imported from SDTM IG"},{"study_id":"GLOBAL","standard":"SDTM","code":"IS","name":"Immunogenicity Specimen Assessments","description":"Immunogenicity Specimen Assessments domain per CDISC specification.","structure":"One record per test per visit per subject","cls":"FINDINGS","purpose":"Tabulation","key_variables":"STUDYID, DOMAIN, USUBJID, POOLID, SPDEVID, NHOID","version":"1.0","status":"ACTIVE","updated_at":"2026-03-27T00:00:00.000Z","updated_by":"CDISC Standards Lead","change_reason":"Imported from SDTM IG"},{"study_id":"GLOBAL","standard":"SDTM","code":"LB","name":"Laboratory Test Results","description":"Laboratory Test Results domain per CDISC specification.","structure":"One record per lab test per time point per visit per subject","cls":"FINDINGS","purpose":"Tabulation","key_variables":"STUDYID, DOMAIN, USUBJID, POOLID, SPDEVID, NHOID","version":"1.0","status":"ACTIVE","updated_at":"2026-03-27T00:00:00.000Z","updated_by":"CDISC Standards Lead","change_reason":"Imported from SDTM IG"},{"study_id":"GLOBAL","standard":"SDTM","code":"LC","name":"Laboratory Results Conventional Units","description":"Laboratory Results Conventional Units domain per CDISC specification.","structure":"One record per lab test per time point per visit per subject","cls":"FINDINGS","purpose":"Tabulation","key_variables":"STUDYID, DOMAIN, USUBJID, POOLID, SPDEVID, NHOID","version":"1.0","status":"ACTIVE","updated_at":"2026-03-27T00:00:00.000Z","updated_by":"CDISC Standards Lead","change_reason":"Imported from SDTM IG"},{"study_id":"GLOBAL","standard":"SDTM","code":"MB","name":"Microbiology Specimen","description":"Microbiology Specimen domain per CDISC specification.","structure":"One record per microbiology specimen finding per time point per visit per subject","cls":"FINDINGS","purpose":"Tabulation","key_variables":"STUDYID, DOMAIN, USUBJID, POOLID, SPDEVID, NHOID","version":"1.0","status":"ACTIVE","updated_at":"2026-03-27T00:00:00.000Z","updated_by":"CDISC Standards Lead","change_reason":"Imported from SDTM IG"},{"study_id":"GLOBAL","standard":"SDTM","code":"MI","name":"Microscopic Findings","description":"Microscopic Findings domain per CDISC specification.","structure":"One record per finding per specimen per subject","cls":"FINDINGS","purpose":"Tabulation","key_variables":"STUDYID, DOMAIN, USUBJID, POOLID, SPDEVID, NHOID","version":"1.0","status":"ACTIVE","updated_at":"2026-03-27T00:00:00.000Z","updated_by":"CDISC Standards Lead","change_reason":"Imported from SDTM IG"},{"study_id":"GLOBAL","standard":"SDTM","code":"MK","name":"Musculoskeletal System Findings","description":"Musculoskeletal System Findings domain per CDISC specification.","structure":"One record per assessment per visit per subject","cls":"FINDINGS","purpose":"Tabulation","key_variables":"STUDYID, DOMAIN, USUBJID, POOLID, SPDEVID, NHOID","version":"1.0","status":"ACTIVE","updated_at":"2026-03-27T00:00:00.000Z","updated_by":"CDISC Standards Lead","change_reason":"Imported from SDTM IG"},{"study_id":"GLOBAL","standard":"SDTM","code":"MS","name":"Microbiology Susceptibility","description":"Microbiology Susceptibility domain per CDISC specification.","structure":"One record per microbiology susceptibility test (or other organism-related finding) per organism found in MB","cls":"FINDINGS","purpose":"Tabulation","key_variables":"STUDYID, DOMAIN, USUBJID, POOLID, SPDEVID, NHOID","version":"1.0","status":"ACTIVE","updated_at":"2026-03-27T00:00:00.000Z","updated_by":"CDISC Standards Lead","change_reason":"Imported from SDTM IG"},{"study_id":"GLOBAL","standard":"SDTM","code":"NV","name":"Nervous System Findings","description":"Nervous System Findings domain per CDISC specification.","structure":"One record per finding per location per time point per visit per subject","cls":"FINDINGS","purpose":"Tabulation","key_variables":"STUDYID, DOMAIN, USUBJID, POOLID, SPDEVID, NHOID","version":"1.0","status":"ACTIVE","updated_at":"2026-03-27T00:00:00.000Z","updated_by":"CDISC Standards Lead","change_reason":"Imported from SDTM IG"},{"study_id":"GLOBAL","standard":"SDTM","code":"OE","name":"Ophthalmic Examinations","description":"Ophthalmic Examinations domain per CDISC specification.","structure":"One record per ophthalmic finding per method per location, per time point per visit per subject","cls":"FINDINGS","purpose":"Tabulation","key_variables":"STUDYID, DOMAIN, USUBJID, POOLID, SPDEVID, NHOID","version":"1.0","status":"ACTIVE","updated_at":"2026-03-27T00:00:00.000Z","updated_by":"CDISC Standards Lead","change_reason":"Imported from SDTM IG"},{"study_id":"GLOBAL","standard":"SDTM","code":"PC","name":"Pharmacokinetics Concentrations","description":"Pharmacokinetics Concentrations domain per CDISC specification.","structure":"One record per sample characteristic or time-point concentration per reference time point or per analyte per subject","cls":"FINDINGS","purpose":"Tabulation","key_variables":"STUDYID, DOMAIN, USUBJID, POOLID, SPDEVID, NHOID","version":"1.0","status":"ACTIVE","updated_at":"2026-03-27T00:00:00.000Z","updated_by":"CDISC Standards Lead","change_reason":"Imported from SDTM IG"},{"study_id":"GLOBAL","standard":"SDTM","code":"PE","name":"Physical Examination","description":"Physical Examination domain per CDISC specification.","structure":"One record per body system or abnormality per visit per subject","cls":"FINDINGS","purpose":"Tabulation","key_variables":"STUDYID, DOMAIN, USUBJID, POOLID, SPDEVID, NHOID","version":"1.0","status":"ACTIVE","updated_at":"2026-03-27T00:00:00.000Z","updated_by":"CDISC Standards Lead","change_reason":"Imported from SDTM IG"},{"study_id":"GLOBAL","standard":"SDTM","code":"PP","name":"Pharmacokinetics Parameters","description":"Pharmacokinetics Parameters domain per CDISC specification.","structure":"One record per PK parameter per time-concentration profile per modeling method per subject","cls":"FINDINGS","purpose":"Tabulation","key_variables":"STUDYID, DOMAIN, USUBJID, POOLID, SPDEVID, NHOID","version":"1.0","status":"ACTIVE","updated_at":"2026-03-27T00:00:00.000Z","updated_by":"CDISC Standards Lead","change_reason":"Imported from SDTM IG"},{"study_id":"GLOBAL","standard":"SDTM","code":"QS","name":"Questionnaires","description":"Questionnaires domain per CDISC specification.","structure":"One record per questionnaire per question per time point per visit per subject","cls":"FINDINGS","purpose":"Tabulation","key_variables":"STUDYID, DOMAIN, USUBJID, POOLID, SPDEVID, NHOID","version":"1.0","status":"ACTIVE","updated_at":"2026-03-27T00:00:00.000Z","updated_by":"CDISC Standards Lead","change_reason":"Imported from SDTM IG"},{"study_id":"GLOBAL","standard":"SDTM","code":"RE","name":"Respiratory System Findings","description":"Respiratory System Findings domain per CDISC specification.","structure":"One record per finding or result per time point per visit per subject","cls":"FINDINGS","purpose":"Tabulation","key_variables":"STUDYID, DOMAIN, USUBJID, POOLID, SPDEVID, NHOID","version":"1.0","status":"ACTIVE","updated_at":"2026-03-27T00:00:00.000Z","updated_by":"CDISC Standards Lead","change_reason":"Imported from SDTM IG"},{"study_id":"GLOBAL","standard":"SDTM","code":"RP","name":"Reproductive System Findings","description":"Reproductive System Findings domain per CDISC specification.","structure":"One record per finding or result per time point per visit per subject","cls":"FINDINGS","purpose":"Tabulation","key_variables":"STUDYID, DOMAIN, USUBJID, POOLID, SPDEVID, NHOID","version":"1.0","status":"ACTIVE","updated_at":"2026-03-27T00:00:00.000Z","updated_by":"CDISC Standards Lead","change_reason":"Imported from SDTM IG"},{"study_id":"GLOBAL","standard":"SDTM","code":"RS","name":"Disease Response and Clin Classification","description":"Disease Response and Clin Classification domain per CDISC specification.","structure":"One record per response assessment or clinical classification assessment per time point per visit per subject per assessor per medical evaluator","cls":"FINDINGS","purpose":"Tabulation","key_variables":"STUDYID, DOMAIN, USUBJID, POOLID, SPDEVID, NHOID","version":"1.0","status":"ACTIVE","updated_at":"2026-03-27T00:00:00.000Z","updated_by":"CDISC Standards Lead","change_reason":"Imported from SDTM IG"},{"study_id":"GLOBAL","standard":"SDTM","code":"SC","name":"Subject Characteristics","description":"Subject Characteristics domain per CDISC specification.","structure":"One record per characteristic per visit per subject","cls":"FINDINGS","purpose":"Tabulation","key_variables":"STUDYID, DOMAIN, USUBJID, POOLID, SPDEVID, NHOID","version":"1.0","status":"ACTIVE","updated_at":"2026-03-27T00:00:00.000Z","updated_by":"CDISC Standards Lead","change_reason":"Imported from SDTM IG"},{"study_id":"GLOBAL","standard":"SDTM","code":"SS","name":"Subject Status","description":"Subject Status domain per CDISC specification.","structure":"One record per status per visit per subject","cls":"FINDINGS","purpose":"Tabulation","key_variables":"STUDYID, DOMAIN, USUBJID, POOLID, SPDEVID, NHOID","version":"1.0","status":"ACTIVE","updated_at":"2026-03-27T00:00:00.000Z","updated_by":"CDISC Standards Lead","change_reason":"Imported from SDTM IG"},{"study_id":"GLOBAL","standard":"SDTM","code":"TR","name":"Tumor/Lesion Results","description":"Tumor/Lesion Results domain per CDISC specification.","structure":"One record per tumor measurement/assessment per visit per subject per assessor","cls":"FINDINGS","purpose":"Tabulation","key_variables":"STUDYID, DOMAIN, USUBJID, POOLID, SPDEVID, NHOID","version":"1.0","status":"ACTIVE","updated_at":"2026-03-27T00:00:00.000Z","updated_by":"CDISC Standards Lead","change_reason":"Imported from SDTM IG"},{"study_id":"GLOBAL","standard":"SDTM","code":"TU","name":"Tumor/Lesion Identification","description":"Tumor/Lesion Identification domain per CDISC specification.","structure":"One record per identified tumor per subject per assessor","cls":"FINDINGS","purpose":"Tabulation","key_variables":"STUDYID, DOMAIN, USUBJID, POOLID, SPDEVID, NHOID","version":"1.0","status":"ACTIVE","updated_at":"2026-03-27T00:00:00.000Z","updated_by":"CDISC Standards Lead","change_reason":"Imported from SDTM IG"},{"study_id":"GLOBAL","standard":"SDTM","code":"UR","name":"Urinary System Findings","description":"Urinary System Findings domain per CDISC specification.","structure":"One record per finding per location per per visit per subject","cls":"FINDINGS","purpose":"Tabulation","key_variables":"STUDYID, DOMAIN, USUBJID, POOLID, SPDEVID, NHOID","version":"1.0","status":"ACTIVE","updated_at":"2026-03-27T00:00:00.000Z","updated_by":"CDISC Standards Lead","change_reason":"Imported from SDTM IG"},{"study_id":"GLOBAL","standard":"SDTM","code":"VS","name":"Vital Signs","description":"Vital Signs domain per CDISC specification.","structure":"One record per vital sign measurement per time point per visit per subject","cls":"FINDINGS","purpose":"Tabulation","key_variables":"STUDYID, DOMAIN, USUBJID, POOLID, SPDEVID, NHOID","version":"1.0","status":"ACTIVE","updated_at":"2026-03-27T00:00:00.000Z","updated_by":"CDISC Standards Lead","change_reason":"Imported from SDTM IG"},{"study_id":"GLOBAL","standard":"SDTM","code":"AP FINDINGS ABOUT","name":"Associated Persons Findings About","description":"Associated Persons Findings About domain per CDISC specification.","structure":"One record per finding per object per time point per time point reference per visit per subject","cls":"FINDINGS ABOUT","purpose":"Tabulation","key_variables":"STUDYID, DOMAIN, USUBJID, APID, POOLID, SPDEVID","version":"1.0","status":"ACTIVE","updated_at":"2026-03-27T00:00:00.000Z","updated_by":"CDISC Standards Lead","change_reason":"Imported from SDTM IG"},{"study_id":"GLOBAL","standard":"SDTM","code":"FINDINGS ABOUT","name":"Findings About Events or Interventions","description":"Findings About Events or Interventions domain per CDISC specification.","structure":"One record per finding per object per time point per time point reference per visit per subject","cls":"FINDINGS ABOUT","purpose":"Tabulation","key_variables":"STUDYID, DOMAIN, USUBJID, POOLID, SPDEVID, NHOID","version":"1.0","status":"ACTIVE","updated_at":"2026-03-27T00:00:00.000Z","updated_by":"CDISC Standards Lead","change_reason":"Imported from SDTM IG"},{"study_id":"GLOBAL","standard":"SDTM","code":"APFA","name":"Associated Persons for FA","description":"Associated Persons for FA domain per CDISC specification.","structure":"One record per finding, per object, per time point, per visit per associated person","cls":"FINDINGS ABOUT","purpose":"Tabulation","key_variables":"STUDYID, DOMAIN, USUBJID, APID, POOLID, SPDEVID","version":"1.0","status":"ACTIVE","updated_at":"2026-03-27T00:00:00.000Z","updated_by":"CDISC Standards Lead","change_reason":"Imported from SDTM IG"},{"study_id":"GLOBAL","standard":"SDTM","code":"APSR","name":"Associated Persons for SR","description":"Associated Persons for SR domain per CDISC specification.","structure":"One record per finding, per object, per time point, per visit per associated person","cls":"FINDINGS ABOUT","purpose":"Tabulation","key_variables":"STUDYID, DOMAIN, USUBJID, APID, POOLID, SPDEVID","version":"1.0","status":"ACTIVE","updated_at":"2026-03-27T00:00:00.000Z","updated_by":"CDISC Standards Lead","change_reason":"Imported from SDTM IG"},{"study_id":"GLOBAL","standard":"SDTM","code":"FA","name":"Findings About Events or Interventions","description":"Findings About Events or Interventions domain per CDISC specification.","structure":"One record per finding, per object, per time point, per visit per subject","cls":"FINDINGS ABOUT","purpose":"Tabulation","key_variables":"STUDYID, DOMAIN, USUBJID, POOLID, SPDEVID, NHOID","version":"1.0","status":"ACTIVE","updated_at":"2026-03-27T00:00:00.000Z","updated_by":"CDISC Standards Lead","change_reason":"Imported from SDTM IG"},{"study_id":"GLOBAL","standard":"SDTM","code":"SR","name":"Skin Response","description":"Skin Response domain per CDISC specification.","structure":"One record per finding, per object, per time point, per visit per subject","cls":"FINDINGS ABOUT","purpose":"Tabulation","key_variables":"STUDYID, DOMAIN, USUBJID, POOLID, SPDEVID, NHOID","version":"1.0","status":"ACTIVE","updated_at":"2026-03-27T00:00:00.000Z","updated_by":"CDISC Standards Lead","change_reason":"Imported from SDTM IG"},{"study_id":"GLOBAL","standard":"SDTM","code":"SQAP","name":"Associated Persons for SUPPQUAL","description":"Associated Persons for SUPPQUAL domain per CDISC specification.","structure":"One record per IDVAR, IDVARVAL, and QNAM value per associated person per related domain","cls":"RELATIONSHIP","purpose":"Tabulation","key_variables":"STUDYID, RDOMAIN, APID, IDVAR, IDVARVAL, QNAM","version":"1.0","status":"ACTIVE","updated_at":"2026-03-27T00:00:00.000Z","updated_by":"CDISC Standards Lead","change_reason":"Imported from SDTM IG"},{"study_id":"GLOBAL","standard":"SDTM","code":"SUPPQUAL","name":"Supplemental Qualifiers","description":"Supplemental Qualifiers domain per CDISC specification.","structure":"One record per supplemental qualifier per related parent domain record(s)","cls":"RELATIONSHIP","purpose":"Tabulation","key_variables":"STUDYID, RDOMAIN, USUBJID, POOLID, SPDEVID, IDVAR","version":"1.0","status":"ACTIVE","updated_at":"2026-03-27T00:00:00.000Z","updated_by":"CDISC Standards Lead","change_reason":"Imported from SDTM IG"},{"study_id":"GLOBAL","standard":"SDTM","code":"APRELSUB","name":"Associated Persons Related to Subjects","description":"Associated Persons Related to Subjects domain per CDISC specification.","structure":"One record per relationship per related subject per associated person","cls":"RELATIONSHIP","purpose":"Tabulation","key_variables":"STUDYID, APID, USUBJID, POOLID, RSUBJID, RDEVID","version":"1.0","status":"ACTIVE","updated_at":"2026-03-27T00:00:00.000Z","updated_by":"CDISC Standards Lead","change_reason":"Imported from SDTM IG"},{"study_id":"GLOBAL","standard":"SDTM","code":"DR","name":"Device-Subject Relationships","description":"Device-Subject Relationships domain per CDISC specification.","structure":"One record per device/subject combination","cls":"RELATIONSHIP","purpose":"Tabulation","key_variables":"STUDYID, DOMAIN, USUBJID, SPDEVID","version":"1.0","status":"ACTIVE","updated_at":"2026-03-27T00:00:00.000Z","updated_by":"CDISC Standards Lead","change_reason":"Imported from SDTM IG"},{"study_id":"GLOBAL","standard":"SDTM","code":"POOLDEF","name":"Pool Definition","description":"Pool Definition domain per CDISC specification.","structure":"One record per STUDYID, POOLID, USUBJID","cls":"RELATIONSHIP","purpose":"Tabulation","key_variables":"STUDYID, POOLID, USUBJID, APID","version":"1.0","status":"ACTIVE","updated_at":"2026-03-27T00:00:00.000Z","updated_by":"CDISC Standards Lead","change_reason":"Imported from SDTM IG"},{"study_id":"GLOBAL","standard":"SDTM","code":"RELREC","name":"Related Records","description":"Related Records domain per CDISC specification.","structure":"One record per related record, group of records or dataset","cls":"RELATIONSHIP","purpose":"Tabulation","key_variables":"STUDYID, RDOMAIN, USUBJID, APID, POOLID, SPDEVID","version":"1.0","status":"ACTIVE","updated_at":"2026-03-27T00:00:00.000Z","updated_by":"CDISC Standards Lead","change_reason":"Imported from SDTM IG"},{"study_id":"GLOBAL","standard":"SDTM","code":"RELSPEC","name":"Related Specimens","description":"Related Specimens domain per CDISC specification.","structure":"One record per specimen identifier per subject","cls":"RELATIONSHIP","purpose":"Tabulation","key_variables":"STUDYID, USUBJID, POOLID, REFID, PARENT","version":"1.0","status":"ACTIVE","updated_at":"2026-03-27T00:00:00.000Z","updated_by":"CDISC Standards Lead","change_reason":"Imported from SDTM IG"},{"study_id":"GLOBAL","standard":"SDTM","code":"RELSUB","name":"Related Subjects","description":"Related Subjects domain per CDISC specification.","structure":"One record per relationship per related subject per subject","cls":"RELATIONSHIP","purpose":"Tabulation","key_variables":"STUDYID, USUBJID, POOLID, RSUBJID, SREL","version":"1.0","status":"ACTIVE","updated_at":"2026-03-27T00:00:00.000Z","updated_by":"CDISC Standards Lead","change_reason":"Imported from SDTM IG"},{"study_id":"GLOBAL","standard":"SDTM","code":"DI","name":"Device Identifiers","description":"Device Identifiers domain per CDISC specification.","structure":"One record per device identifier per device","cls":"STUDY REFERENCE","purpose":"Tabulation","key_variables":"STUDYID, DOMAIN, SPDEVID, DISEQ","version":"1.0","status":"ACTIVE","updated_at":"2026-03-27T00:00:00.000Z","updated_by":"CDISC Standards Lead","change_reason":"Imported from SDTM IG"},{"study_id":"GLOBAL","standard":"SDTM","code":"OI","name":"Non-host Organism Identifiers","description":"Non-host Organism Identifiers domain per CDISC specification.","structure":"One record per taxon per non-host organism","cls":"STUDY REFERENCE","purpose":"Tabulation","key_variables":"STUDYID, DOMAIN, NHOID, OISEQ, OIPARMCD","version":"1.0","status":"ACTIVE","updated_at":"2026-03-27T00:00:00.000Z","updated_by":"CDISC Standards Lead","change_reason":"Imported from SDTM IG"},{"study_id":"GLOBAL","standard":"ADaM","code":"ADSL","name":"Subject-Level Analysis Dataset","description":"Subject-Level Analysis Dataset dataset per CDISC specification.","structure":"One record per subject","cls":"SUBJECT LEVEL ANALYSIS DATASET","purpose":"Analysis","key_variables":"STUDYID, USUBJID, SUBJID, SITEID, SITEGR#, SITEGR#N","version":"1.0","status":"ACTIVE","updated_at":"2026-03-27T00:00:00.000Z","updated_by":"CDISC Standards Lead","change_reason":"Imported from ADaM IG"},{"study_id":"GLOBAL","standard":"ADaM","code":"ADDL","name":"Device-level Analysis Dataset","description":"Device-level Analysis Dataset dataset per CDISC specification.","structure":"One record per device per subject","cls":"DEVICE LEVEL ANALYSIS DATASET","purpose":"Analysis","key_variables":"STUDYID, SPDEVID, USUBJID, SUBJID, SITEID, SITEGR#","version":"1.0","status":"ACTIVE","updated_at":"2026-03-27T00:00:00.000Z","updated_by":"CDISC Standards Lead","change_reason":"Imported from ADaM IG"},{"study_id":"GLOBAL","standard":"ADaM","code":"ADNCA","name":"Non-Compartmental Analysis","description":"Non-Compartmental Analysis dataset per CDISC specification.","structure":"One or more records per subject per analysis parameter per analysis visit per analysis timepoint","cls":"BASIC DATA STRUCTURE","purpose":"Analysis","key_variables":"STUDYID, USUBJID, SUBJID, SITEID, ASEQ, AVISIT","version":"1.0","status":"ACTIVE","updated_at":"2026-03-27T00:00:00.000Z","updated_by":"CDISC Standards Lead","change_reason":"Imported from ADaM IG"},{"study_id":"GLOBAL","standard":"ADaM","code":"ADPPK","name":"Population PK Analysis Dataset","description":"Population PK Analysis Dataset dataset per CDISC specification.","structure":"One record per subject per parameter (analyte) per analysis timepoint per event (dosing or observation)","cls":"BASIC DATA STRUCTURE","purpose":"Analysis","key_variables":"STUDYID, USUBJID, ASEQ, AFRLT, EVID, DVID","version":"1.0","status":"ACTIVE","updated_at":"2026-03-27T00:00:00.000Z","updated_by":"CDISC Standards Lead","change_reason":"Imported from ADaM IG"},{"study_id":"GLOBAL","standard":"ADaM","code":"BDS","name":"Basic Data Structure","description":"Basic Data Structure dataset per CDISC specification.","structure":"One or more records per subject per analysis parameter per analysis timepoint","cls":"BASIC DATA STRUCTURE","purpose":"Analysis","key_variables":"STUDYID, USUBJID, SUBJID, SITEID, ASEQ, PARAM","version":"1.0","status":"ACTIVE","updated_at":"2026-03-27T00:00:00.000Z","updated_by":"CDISC Standards Lead","change_reason":"Imported from ADaM IG"},{"study_id":"GLOBAL","standard":"ADaM","code":"MDBDS","name":"Medical Device Basic Data Structure","description":"Medical Device Basic Data Structure dataset per CDISC specification.","structure":"One or more records per device per subject per analysis parameter per analysis timepoint","cls":"MEDICAL DEVICE BASIC DATA STRUCTURE","purpose":"Analysis","key_variables":"STUDYID, SPDEVID, USUBJID, SUBJID, SITEID, ASEQ","version":"1.0","status":"ACTIVE","updated_at":"2026-03-27T00:00:00.000Z","updated_by":"CDISC Standards Lead","change_reason":"Imported from ADaM IG"},{"study_id":"GLOBAL","standard":"ADaM","code":"OCCDS","name":"Occurrence Data Structure","description":"Occurrence Data Structure dataset per CDISC specification.","structure":"One or more records per subject per event or intervention","cls":"OCCURRENCE DATA STRUCTURE","purpose":"Analysis","key_variables":"STUDYID, USUBJID, SUBJID, SITEID, *SEQ, ASEQ","version":"1.0","status":"ACTIVE","updated_at":"2026-03-27T00:00:00.000Z","updated_by":"CDISC Standards Lead","change_reason":"Imported from ADaM IG"},{"study_id":"GLOBAL","standard":"ADaM","code":"ADAE","name":"Analysis Adverse Events","description":"Analysis Adverse Events dataset per CDISC specification.","structure":"One record per subject per adverse event","cls":"OCCURRENCE DATA STRUCTURE","purpose":"Analysis","key_variables":"STUDYID, USUBJID, SUBJID, SITEID, AESEQ, ASEQ","version":"1.0","status":"ACTIVE","updated_at":"2026-03-27T00:00:00.000Z","updated_by":"CDISC Standards Lead","change_reason":"Imported from ADaM IG"},{"study_id":"GLOBAL","standard":"ADaM","code":"MDOCCDS","name":"Medical Device Occurrence Data Structure","description":"Medical Device Occurrence Data Structure dataset per CDISC specification.","structure":"One or more records per device per subject per event or intervention","cls":"MEDICAL DEVICE OCCURRENCE DATA STRUCTURE","purpose":"Analysis","key_variables":"STUDYID, SPDEVID, USUBJID, SUBJID, SITEID, *SEQ","version":"1.0","status":"ACTIVE","updated_at":"2026-03-27T00:00:00.000Z","updated_by":"CDISC Standards Lead","change_reason":"Imported from ADaM IG"},{"study_id":"GLOBAL","standard":"ADaM","code":"ADAMOTHER","name":"ADaM Other","description":"ADaM Other dataset per CDISC specification.","structure":"One or more records per subject","cls":"ADAM OTHER","purpose":"Analysis","key_variables":"STUDYID, USUBJID, SITEID, SITEGR#, SITEGR#N, REGION#","version":"1.0","status":"ACTIVE","updated_at":"2026-03-27T00:00:00.000Z","updated_by":"CDISC Standards Lead","change_reason":"Imported from ADaM IG"},{"study_id":"GLOBAL","standard":"ADaM","code":"AE","name":"Adverse Events","description":"Adverse Events dataset per CDISC specification.","structure":"One record per adverse event per subject","cls":"EVENTS","purpose":"Analysis","key_variables":"STUDYID, USUBJID","version":"1.0","status":"ACTIVE","updated_at":"2026-03-27T00:00:00.000Z","updated_by":"CDISC Standards Lead","change_reason":"Imported from ADaM IG"},{"study_id":"GLOBAL","standard":"ADaM","code":"DM","name":"Demographics","description":"Demographics dataset per CDISC specification.","structure":"One record per subject","cls":"SPECIAL PURPOSE","purpose":"Analysis","key_variables":"STUDYID, USUBJID","version":"1.0","status":"ACTIVE","updated_at":"2026-03-27T00:00:00.000Z","updated_by":"CDISC Standards Lead","change_reason":"Imported from ADaM IG"},{"study_id":"GLOBAL","standard":"ADaM","code":"EX","name":"Exposure","description":"Exposure dataset per CDISC specification.","structure":"One record per protocol-specified study treatment, constant-dosing interval, per subject","cls":"INTERVENTIONS","purpose":"Analysis","key_variables":"STUDYID, USUBJID","version":"1.0","status":"ACTIVE","updated_at":"2026-03-27T00:00:00.000Z","updated_by":"CDISC Standards Lead","change_reason":"Imported from ADaM IG"},{"study_id":"GLOBAL","standard":"ADaM","code":"SUPPAE","name":"SUPPAE","description":"SUPPAE dataset per CDISC specification.","structure":"Analysis dataset","cls":"Analysis","purpose":"Analysis","key_variables":"STUDYID, USUBJID","version":"1.0","status":"ACTIVE","updated_at":"2026-03-27T00:00:00.000Z","updated_by":"CDISC Standards Lead","change_reason":"Imported from ADaM IG"}],"variables":[{"study_id":"GLOBAL","standard":"SDTM","domain":"TA","name":"STUDYID","label":"Study Identifier","type":"Char","length":200,"format":"","role":"IDENTIFIER","origin":"ASSIGNED","derivation":"","codelist":null,"key_seq":1,"core":"Required","version":"1.0","status":"ACTIVE","effective_from":"2026-03-27T00:00:00.000Z","updated_at":"2026-03-27T00:00:00.000Z","updated_by":"CDISC Standards Lead","change_reason":"CDISC SDTM release"},{"study_id":"GLOBAL","standard":"SDTM","domain":"TA","name":"DOMAIN","label":"Domain Abbreviation","type":"Char","length":200,"format":"","role":"IDENTIFIER","origin":"ASSIGNED","derivation":"","codelist":null,"key_seq":null,"core":"Required","version":"1.0","status":"ACTIVE","effective_from":"2026-03-27T00:00:00.000Z","updated_at":"2026-03-27T00:00:00.000Z","updated_by":"CDISC Standards Lead","change_reason":"CDISC SDTM release"},{"study_id":"GLOBAL","standard":"SDTM","domain":"TA","name":"ARMCD","label":"Planned Arm Code","type":"Char","length":200,"format":"","role":"TOPIC","origin":"CRF","derivation":"","codelist":null,"key_seq":2,"core":"Required","version":"1.0","status":"ACTIVE","effective_from":"2026-03-27T00:00:00.000Z","updated_at":"2026-03-27T00:00:00.000Z","updated_by":"CDISC Standards Lead","change_reason":"CDISC SDTM release"},{"study_id":"GLOBAL","standard":"SDTM","domain":"TA","name":"ARM","label":"Description of Planned Arm","type":"Char","length":200,"format":"","role":"SYNONYM QUALIFIER","origin":"CRF","derivation":"","codelist":null,"key_seq":null,"core":"Required","version":"1.0","status":"ACTIVE","effective_from":"2026-03-27T00:00:00.000Z","updated_at":"2026-03-27T00:00:00.000Z","updated_by":"CDISC Standards Lead","change_reason":"CDISC SDTM release"},{"study_id":"GLOBAL","standard":"SDTM","domain":"TA","name":"TAETORD","label":"Planned Order of Element within Arm","type":"Num","length":8,"format":"8.","role":"TIMING","origin":"CRF","derivation":"","codelist":null,"key_seq":3,"core":"Required","version":"1.0","status":"ACTIVE","effective_from":"2026-03-27T00:00:00.000Z","updated_at":"2026-03-27T00:00:00.000Z","updated_by":"CDISC Standards Lead","change_reason":"CDISC SDTM release"},{"study_id":"GLOBAL","standard":"SDTM","domain":"TA","name":"ETCD","label":"Element Code","type":"Char","length":200,"format":"","role":"RECORD QUALIFIER","origin":"CRF","derivation":"","codelist":null,"key_seq":null,"core":"Required","version":"1.0","status":"ACTIVE","effective_from":"2026-03-27T00:00:00.000Z","updated_at":"2026-03-27T00:00:00.000Z","updated_by":"CDISC Standards Lead","change_reason":"CDISC SDTM release"},{"study_id":"GLOBAL","standard":"SDTM","domain":"TA","name":"ELEMENT","label":"Description of Element","type":"Char","length":200,"format":"","role":"SYNONYM QUALIFIER","origin":"CRF","derivation":"","codelist":null,"key_seq":null,"core":"Permissible","version":"1.0","status":"ACTIVE","effective_from":"2026-03-27T00:00:00.000Z","updated_at":"2026-03-27T00:00:00.000Z","updated_by":"CDISC Standards Lead","change_reason":"CDISC SDTM release"},{"study_id":"GLOBAL","standard":"SDTM","domain":"TA","name":"TABRANCH","label":"Branch","type":"Char","length":200,"format":"","role":"RULE","origin":"CRF","derivation":"","codelist":null,"key_seq":null,"core":"Expected","version":"1.0","status":"ACTIVE","effective_from":"2026-03-27T00:00:00.000Z","updated_at":"2026-03-27T00:00:00.000Z","updated_by":"CDISC Standards Lead","change_reason":"CDISC SDTM release"},{"study_id":"GLOBAL","standard":"SDTM","domain":"TA","name":"TATRANS","label":"Transition Rule","type":"Char","length":200,"format":"","role":"RULE","origin":"CRF","derivation":"","codelist":null,"key_seq":null,"core":"Expected","version":"1.0","status":"ACTIVE","effective_from":"2026-03-27T00:00:00.000Z","updated_at":"2026-03-27T00:00:00.000Z","updated_by":"CDISC Standards Lead","change_reason":"CDISC SDTM release"},{"study_id":"GLOBAL","standard":"SDTM","domain":"TA","name":"EPOCH","label":"Epoch","type":"Char","length":200,"format":"","role":"TIMING","origin":"CRF","derivation":"","codelist":"EPOCH","key_seq":null,"core":"Required","version":"1.0","status":"ACTIVE","effective_from":"2026-03-27T00:00:00.000Z","updated_at":"2026-03-27T00:00:00.000Z","updated_by":"CDISC Standards Lead","change_reason":"CDISC SDTM release"},{"study_id":"GLOBAL","standard":"SDTM","domain":"TD","name":"STUDYID","label":"Study Identifier","type":"Char","length":200,"format":"","role":"IDENTIFIER","origin":"ASSIGNED","derivation":"","codelist":null,"key_seq":1,"core":"Required","version":"1.0","status":"ACTIVE","effective_from":"2026-03-27T00:00:00.000Z","updated_at":"2026-03-27T00:00:00.000Z","updated_by":"CDISC Standards Lead","change_reason":"CDISC SDTM release"},{"study_id":"GLOBAL","standard":"SDTM","domain":"TD","name":"DOMAIN","label":"Domain Abbreviation","type":"Char","length":200,"format":"","role":"IDENTIFIER","origin":"ASSIGNED","derivation":"","codelist":null,"key_seq":null,"core":"Required","version":"1.0","status":"ACTIVE","effective_from":"2026-03-27T00:00:00.000Z","updated_at":"2026-03-27T00:00:00.000Z","updated_by":"CDISC Standards Lead","change_reason":"CDISC SDTM release"},{"study_id":"GLOBAL","standard":"SDTM","domain":"TD","name":"TDORDER","label":"Sequence of Planned Assessment Schedule","type":"Num","length":8,"format":"8.","role":"TIMING","origin":"CRF","derivation":"","codelist":null,"key_seq":2,"core":"Required","version":"1.0","status":"ACTIVE","effective_from":"2026-03-27T00:00:00.000Z","updated_at":"2026-03-27T00:00:00.000Z","updated_by":"CDISC Standards Lead","change_reason":"CDISC SDTM release"},{"study_id":"GLOBAL","standard":"SDTM","domain":"TD","name":"TDANCVAR","label":"Anchor Variable Name","type":"Char","length":200,"format":"","role":"TIMING","origin":"CRF","derivation":"","codelist":null,"key_seq":null,"core":"Required","version":"1.0","status":"ACTIVE","effective_from":"2026-03-27T00:00:00.000Z","updated_at":"2026-03-27T00:00:00.000Z","updated_by":"CDISC Standards Lead","change_reason":"CDISC SDTM release"},{"study_id":"GLOBAL","standard":"SDTM","domain":"TD","name":"TDSTOFF","label":"Offset from the Anchor","type":"Char","length":200,"format":"","role":"TIMING","origin":"CRF","derivation":"","codelist":null,"key_seq":null,"core":"Required","version":"1.0","status":"ACTIVE","effective_from":"2026-03-27T00:00:00.000Z","updated_at":"2026-03-27T00:00:00.000Z","updated_by":"CDISC Standards Lead","change_reason":"CDISC SDTM release"},{"study_id":"GLOBAL","standard":"SDTM","domain":"TD","name":"TDTGTPAI","label":"Planned Assessment Interval","type":"Char","length":200,"format":"","role":"TIMING","origin":"CRF","derivation":"","codelist":null,"key_seq":null,"core":"Required","version":"1.0","status":"ACTIVE","effective_from":"2026-03-27T00:00:00.000Z","updated_at":"2026-03-27T00:00:00.000Z","updated_by":"CDISC Standards Lead","change_reason":"CDISC SDTM release"},{"study_id":"GLOBAL","standard":"SDTM","domain":"TD","name":"TDMINPAI","label":"Planned Assessment Interval Minimum","type":"Char","length":200,"format":"","role":"TIMING","origin":"CRF","derivation":"","codelist":null,"key_seq":null,"core":"Required","version":"1.0","status":"ACTIVE","effective_from":"2026-03-27T00:00:00.000Z","updated_at":"2026-03-27T00:00:00.000Z","updated_by":"CDISC Standards Lead","change_reason":"CDISC SDTM release"},{"study_id":"GLOBAL","standard":"SDTM","domain":"TD","name":"TDMAXPAI","label":"Planned Assessment Interval Maximum","type":"Char","length":200,"format":"","role":"TIMING","origin":"CRF","derivation":"","codelist":null,"key_seq":null,"core":"Required","version":"1.0","status":"ACTIVE","effective_from":"2026-03-27T00:00:00.000Z","updated_at":"2026-03-27T00:00:00.000Z","updated_by":"CDISC Standards Lead","change_reason":"CDISC SDTM release"},{"study_id":"GLOBAL","standard":"SDTM","domain":"TD","name":"TDNUMRPT","label":"Maximum Number of Actual Assessments","type":"Num","length":8,"format":"8.","role":"RECORD QUALIFIER","origin":"CRF","derivation":"","codelist":null,"key_seq":null,"core":"Required","version":"1.0","status":"ACTIVE","effective_from":"2026-03-27T00:00:00.000Z","updated_at":"2026-03-27T00:00:00.000Z","updated_by":"CDISC Standards Lead","change_reason":"CDISC SDTM release"},{"study_id":"GLOBAL","standard":"SDTM","domain":"TE","name":"STUDYID","label":"Study Identifier","type":"Char","length":200,"format":"","role":"IDENTIFIER","origin":"ASSIGNED","derivation":"","codelist":null,"key_seq":1,"core":"Required","version":"1.0","status":"ACTIVE","effective_from":"2026-03-27T00:00:00.000Z","updated_at":"2026-03-27T00:00:00.000Z","updated_by":"CDISC Standards Lead","change_reason":"CDISC SDTM release"},{"study_id":"GLOBAL","standard":"SDTM","domain":"TE","name":"DOMAIN","label":"Domain Abbreviation","type":"Char","length":200,"format":"","role":"IDENTIFIER","origin":"ASSIGNED","derivation":"","codelist":null,"key_seq":null,"core":"Required","version":"1.0","status":"ACTIVE","effective_from":"2026-03-27T00:00:00.000Z","updated_at":"2026-03-27T00:00:00.000Z","updated_by":"CDISC Standards Lead","change_reason":"CDISC SDTM release"},{"study_id":"GLOBAL","standard":"SDTM","domain":"TE","name":"ETCD","label":"Element Code","type":"Char","length":200,"format":"","role":"TOPIC","origin":"CRF","derivation":"","codelist":null,"key_seq":2,"core":"Required","version":"1.0","status":"ACTIVE","effective_from":"2026-03-27T00:00:00.000Z","updated_at":"2026-03-27T00:00:00.000Z","updated_by":"CDISC Standards Lead","change_reason":"CDISC SDTM release"},{"study_id":"GLOBAL","standard":"SDTM","domain":"TE","name":"ELEMENT","label":"Description of Element","type":"Char","length":200,"format":"","role":"SYNONYM QUALIFIER","origin":"CRF","derivation":"","codelist":null,"key_seq":null,"core":"Required","version":"1.0","status":"ACTIVE","effective_from":"2026-03-27T00:00:00.000Z","updated_at":"2026-03-27T00:00:00.000Z","updated_by":"CDISC Standards Lead","change_reason":"CDISC SDTM release"},{"study_id":"GLOBAL","standard":"SDTM","domain":"TE","name":"TESTRL","label":"Rule for Start of Element","type":"Char","length":200,"format":"","role":"RULE","origin":"CRF","derivation":"","codelist":null,"key_seq":null,"core":"Required","version":"1.0","status":"ACTIVE","effective_from":"2026-03-27T00:00:00.000Z","updated_at":"2026-03-27T00:00:00.000Z","updated_by":"CDISC Standards Lead","change_reason":"CDISC SDTM release"},{"study_id":"GLOBAL","standard":"SDTM","domain":"TE","name":"TEENRL","label":"Rule for End of Element","type":"Char","length":200,"format":"","role":"RULE","origin":"CRF","derivation":"","codelist":null,"key_seq":null,"core":"Permissible","version":"1.0","status":"ACTIVE","effective_from":"2026-03-27T00:00:00.000Z","updated_at":"2026-03-27T00:00:00.000Z","updated_by":"CDISC Standards Lead","change_reason":"CDISC SDTM release"},{"study_id":"GLOBAL","standard":"SDTM","domain":"TE","name":"TEDUR","label":"Planned Duration of Element","type":"Char","length":200,"format":"","role":"TIMING","origin":"CRF","derivation":"","codelist":null,"key_seq":null,"core":"Permissible","version":"1.0","status":"ACTIVE","effective_from":"2026-03-27T00:00:00.000Z","updated_at":"2026-03-27T00:00:00.000Z","updated_by":"CDISC Standards Lead","change_reason":"CDISC SDTM release"},{"study_id":"GLOBAL","standard":"SDTM","domain":"TI","name":"STUDYID","label":"Study Identifier","type":"Char","length":200,"format":"","role":"IDENTIFIER","origin":"ASSIGNED","derivation":"","codelist":null,"key_seq":1,"core":"Required","version":"1.0","status":"ACTIVE","effective_from":"2026-03-27T00:00:00.000Z","updated_at":"2026-03-27T00:00:00.000Z","updated_by":"CDISC Standards Lead","change_reason":"CDISC SDTM release"},{"study_id":"GLOBAL","standard":"SDTM","domain":"TI","name":"DOMAIN","label":"Domain Abbreviation","type":"Char","length":200,"format":"","role":"IDENTIFIER","origin":"ASSIGNED","derivation":"","codelist":null,"key_seq":null,"core":"Required","version":"1.0","status":"ACTIVE","effective_from":"2026-03-27T00:00:00.000Z","updated_at":"2026-03-27T00:00:00.000Z","updated_by":"CDISC Standards Lead","change_reason":"CDISC SDTM release"},{"study_id":"GLOBAL","standard":"SDTM","domain":"TI","name":"IETESTCD","label":"Incl/Excl Criterion Short Name","type":"Char","length":200,"format":"","role":"TOPIC","origin":"CRF","derivation":"","codelist":null,"key_seq":2,"core":"Required","version":"1.0","status":"ACTIVE","effective_from":"2026-03-27T00:00:00.000Z","updated_at":"2026-03-27T00:00:00.000Z","updated_by":"CDISC Standards Lead","change_reason":"CDISC SDTM release"},{"study_id":"GLOBAL","standard":"SDTM","domain":"TI","name":"IETEST","label":"Inclusion/Exclusion Criterion","type":"Char","length":200,"format":"","role":"SYNONYM QUALIFIER","origin":"CRF","derivation":"","codelist":null,"key_seq":null,"core":"Required","version":"1.0","status":"ACTIVE","effective_from":"2026-03-27T00:00:00.000Z","updated_at":"2026-03-27T00:00:00.000Z","updated_by":"CDISC Standards Lead","change_reason":"CDISC SDTM release"},{"study_id":"GLOBAL","standard":"SDTM","domain":"TI","name":"IECAT","label":"Inclusion/Exclusion Category","type":"Char","length":200,"format":"","role":"GROUPING QUALIFIER","origin":"CRF","derivation":"","codelist":"IECAT","key_seq":null,"core":"Required","version":"1.0","status":"ACTIVE","effective_from":"2026-03-27T00:00:00.000Z","updated_at":"2026-03-27T00:00:00.000Z","updated_by":"CDISC Standards Lead","change_reason":"CDISC SDTM release"},{"study_id":"GLOBAL","standard":"SDTM","domain":"TI","name":"IESCAT","label":"Inclusion/Exclusion Subcategory","type":"Char","length":200,"format":"","role":"GROUPING QUALIFIER","origin":"CRF","derivation":"","codelist":null,"key_seq":null,"core":"Permissible","version":"1.0","status":"ACTIVE","effective_from":"2026-03-27T00:00:00.000Z","updated_at":"2026-03-27T00:00:00.000Z","updated_by":"CDISC Standards Lead","change_reason":"CDISC SDTM release"},{"study_id":"GLOBAL","standard":"SDTM","domain":"TI","name":"TIRL","label":"Inclusion/Exclusion Criterion Rule","type":"Char","length":200,"format":"","role":"RULE","origin":"CRF","derivation":"","codelist":null,"key_seq":null,"core":"Permissible","version":"1.0","status":"ACTIVE","effective_from":"2026-03-27T00:00:00.000Z","updated_at":"2026-03-27T00:00:00.000Z","updated_by":"CDISC Standards Lead","change_reason":"CDISC SDTM release"},{"study_id":"GLOBAL","standard":"SDTM","domain":"TI","name":"TIVERS","label":"Protocol Criteria Versions","type":"Char","length":200,"format":"","role":"RECORD QUALIFIER","origin":"CRF","derivation":"","codelist":null,"key_seq":3,"core":"Permissible","version":"1.0","status":"ACTIVE","effective_from":"2026-03-27T00:00:00.000Z","updated_at":"2026-03-27T00:00:00.000Z","updated_by":"CDISC Standards Lead","change_reason":"CDISC SDTM release"},{"study_id":"GLOBAL","standard":"SDTM","domain":"TM","name":"STUDYID","label":"Study Identifier","type":"Char","length":200,"format":"","role":"IDENTIFIER","origin":"ASSIGNED","derivation":"","codelist":null,"key_seq":1,"core":"Required","version":"1.0","status":"ACTIVE","effective_from":"2026-03-27T00:00:00.000Z","updated_at":"2026-03-27T00:00:00.000Z","updated_by":"CDISC Standards Lead","change_reason":"CDISC SDTM release"},{"study_id":"GLOBAL","standard":"SDTM","domain":"TM","name":"DOMAIN","label":"Domain Abbreviation","type":"Char","length":200,"format":"","role":"IDENTIFIER","origin":"ASSIGNED","derivation":"","codelist":null,"key_seq":null,"core":"Required","version":"1.0","status":"ACTIVE","effective_from":"2026-03-27T00:00:00.000Z","updated_at":"2026-03-27T00:00:00.000Z","updated_by":"CDISC Standards Lead","change_reason":"CDISC SDTM release"},{"study_id":"GLOBAL","standard":"SDTM","domain":"TM","name":"MIDSTYPE","label":"Disease Milestone Type","type":"Char","length":200,"format":"","role":"TOPIC","origin":"CRF","derivation":"","codelist":null,"key_seq":2,"core":"Required","version":"1.0","status":"ACTIVE","effective_from":"2026-03-27T00:00:00.000Z","updated_at":"2026-03-27T00:00:00.000Z","updated_by":"CDISC Standards Lead","change_reason":"CDISC SDTM release"},{"study_id":"GLOBAL","standard":"SDTM","domain":"TM","name":"TMDEF","label":"Disease Milestone Definition","type":"Char","length":200,"format":"","role":"VARIABLE QUALIFIER","origin":"CRF","derivation":"","codelist":null,"key_seq":null,"core":"Required","version":"1.0","status":"ACTIVE","effective_from":"2026-03-27T00:00:00.000Z","updated_at":"2026-03-27T00:00:00.000Z","updated_by":"CDISC Standards Lead","change_reason":"CDISC SDTM release"},{"study_id":"GLOBAL","standard":"SDTM","domain":"TM","name":"TMRPT","label":"Disease Milestone Repetition Indicator","type":"Char","length":200,"format":"","role":"RECORD QUALIFIER","origin":"CRF","derivation":"","codelist":"NY","key_seq":null,"core":"Required","version":"1.0","status":"ACTIVE","effective_from":"2026-03-27T00:00:00.000Z","updated_at":"2026-03-27T00:00:00.000Z","updated_by":"CDISC Standards Lead","change_reason":"CDISC SDTM release"},{"study_id":"GLOBAL","standard":"SDTM","domain":"TS","name":"STUDYID","label":"Study Identifier","type":"Char","length":200,"format":"","role":"IDENTIFIER","origin":"ASSIGNED","derivation":"","codelist":null,"key_seq":1,"core":"Required","version":"1.0","status":"ACTIVE","effective_from":"2026-03-27T00:00:00.000Z","updated_at":"2026-03-27T00:00:00.000Z","updated_by":"CDISC Standards Lead","change_reason":"CDISC SDTM release"},{"study_id":"GLOBAL","standard":"SDTM","domain":"TS","name":"DOMAIN","label":"Domain Abbreviation","type":"Char","length":200,"format":"","role":"IDENTIFIER","origin":"ASSIGNED","derivation":"","codelist":null,"key_seq":null,"core":"Required","version":"1.0","status":"ACTIVE","effective_from":"2026-03-27T00:00:00.000Z","updated_at":"2026-03-27T00:00:00.000Z","updated_by":"CDISC Standards Lead","change_reason":"CDISC SDTM release"},{"study_id":"GLOBAL","standard":"SDTM","domain":"TS","name":"TSSEQ","label":"Sequence Number","type":"Num","length":8,"format":"8.","role":"IDENTIFIER","origin":"DERIVED","derivation":"","codelist":null,"key_seq":3,"core":"Required","version":"1.0","status":"ACTIVE","effective_from":"2026-03-27T00:00:00.000Z","updated_at":"2026-03-27T00:00:00.000Z","updated_by":"CDISC Standards Lead","change_reason":"CDISC SDTM release"},{"study_id":"GLOBAL","standard":"SDTM","domain":"TS","name":"TSGRPID","label":"Group ID","type":"Char","length":200,"format":"","role":"IDENTIFIER","origin":"CRF","derivation":"","codelist":null,"key_seq":null,"core":"Permissible","version":"1.0","status":"ACTIVE","effective_from":"2026-03-27T00:00:00.000Z","updated_at":"2026-03-27T00:00:00.000Z","updated_by":"CDISC Standards Lead","change_reason":"CDISC SDTM release"},{"study_id":"GLOBAL","standard":"SDTM","domain":"TS","name":"TSPARMCD","label":"Trial Summary Parameter Short Name","type":"Char","length":200,"format":"","role":"TOPIC","origin":"CRF","derivation":"","codelist":"TSPARMCD","key_seq":2,"core":"Required","version":"1.0","status":"ACTIVE","effective_from":"2026-03-27T00:00:00.000Z","updated_at":"2026-03-27T00:00:00.000Z","updated_by":"CDISC Standards Lead","change_reason":"CDISC SDTM release"},{"study_id":"GLOBAL","standard":"SDTM","domain":"TS","name":"TSPARM","label":"Trial Summary Parameter","type":"Char","length":200,"format":"","role":"SYNONYM QUALIFIER","origin":"CRF","derivation":"","codelist":"TSPARM","key_seq":null,"core":"Required","version":"1.0","status":"ACTIVE","effective_from":"2026-03-27T00:00:00.000Z","updated_at":"2026-03-27T00:00:00.000Z","updated_by":"CDISC Standards Lead","change_reason":"CDISC SDTM release"},{"study_id":"GLOBAL","standard":"SDTM","domain":"TS","name":"TSVAL","label":"Parameter Value","type":"Char","length":200,"format":"","role":"RESULT QUALIFIER","origin":"CRF","derivation":"","codelist":null,"key_seq":null,"core":"Expected","version":"1.0","status":"ACTIVE","effective_from":"2026-03-27T00:00:00.000Z","updated_at":"2026-03-27T00:00:00.000Z","updated_by":"CDISC Standards Lead","change_reason":"CDISC SDTM release"},{"study_id":"GLOBAL","standard":"SDTM","domain":"TS","name":"TSVAL1","label":"Parameter Value","type":"Char","length":200,"format":"","role":"RESULT QUALIFIER","origin":"CRF","derivation":"","codelist":null,"key_seq":null,"core":"Model Permissible","version":"1.0","status":"ACTIVE","effective_from":"2026-03-27T00:00:00.000Z","updated_at":"2026-03-27T00:00:00.000Z","updated_by":"CDISC Standards Lead","change_reason":"CDISC SDTM release"},{"study_id":"GLOBAL","standard":"SDTM","domain":"TS","name":"TSVAL2","label":"Parameter Value","type":"Char","length":200,"format":"","role":"RESULT QUALIFIER","origin":"CRF","derivation":"","codelist":null,"key_seq":null,"core":"Model Permissible","version":"1.0","status":"ACTIVE","effective_from":"2026-03-27T00:00:00.000Z","updated_at":"2026-03-27T00:00:00.000Z","updated_by":"CDISC Standards Lead","change_reason":"CDISC SDTM release"},{"study_id":"GLOBAL","standard":"SDTM","domain":"TS","name":"TSVAL3","label":"Parameter Value","type":"Char","length":200,"format":"","role":"RESULT QUALIFIER","origin":"CRF","derivation":"","codelist":null,"key_seq":null,"core":"Model Permissible","version":"1.0","status":"ACTIVE","effective_from":"2026-03-27T00:00:00.000Z","updated_at":"2026-03-27T00:00:00.000Z","updated_by":"CDISC Standards Lead","change_reason":"CDISC SDTM release"},{"study_id":"GLOBAL","standard":"SDTM","domain":"TS","name":"TSVAL4","label":"Parameter Value","type":"Char","length":200,"format":"","role":"RESULT QUALIFIER","origin":"CRF","derivation":"","codelist":null,"key_seq":null,"core":"Model Permissible","version":"1.0","status":"ACTIVE","effective_from":"2026-03-27T00:00:00.000Z","updated_at":"2026-03-27T00:00:00.000Z","updated_by":"CDISC Standards Lead","change_reason":"CDISC SDTM release"},{"study_id":"GLOBAL","standard":"SDTM","domain":"TS","name":"TSVAL5","label":"Parameter Value","type":"Char","length":200,"format":"","role":"RESULT QUALIFIER","origin":"CRF","derivation":"","codelist":null,"key_seq":null,"core":"Model Permissible","version":"1.0","status":"ACTIVE","effective_from":"2026-03-27T00:00:00.000Z","updated_at":"2026-03-27T00:00:00.000Z","updated_by":"CDISC Standards Lead","change_reason":"CDISC SDTM release"},{"study_id":"GLOBAL","standard":"SDTM","domain":"TS","name":"TSVAL6","label":"Parameter Value","type":"Char","length":200,"format":"","role":"RESULT QUALIFIER","origin":"CRF","derivation":"","codelist":null,"key_seq":null,"core":"Model Permissible","version":"1.0","status":"ACTIVE","effective_from":"2026-03-27T00:00:00.000Z","updated_at":"2026-03-27T00:00:00.000Z","updated_by":"CDISC Standards Lead","change_reason":"CDISC SDTM release"},{"study_id":"GLOBAL","standard":"SDTM","domain":"TS","name":"TSVAL7","label":"Parameter Value","type":"Char","length":200,"format":"","role":"RESULT QUALIFIER","origin":"CRF","derivation":"","codelist":null,"key_seq":null,"core":"Model Permissible","version":"1.0","status":"ACTIVE","effective_from":"2026-03-27T00:00:00.000Z","updated_at":"2026-03-27T00:00:00.000Z","updated_by":"CDISC Standards Lead","change_reason":"CDISC SDTM release"},{"study_id":"GLOBAL","standard":"SDTM","domain":"TS","name":"TSVAL8","label":"Parameter Value","type":"Char","length":200,"format":"","role":"RESULT QUALIFIER","origin":"CRF","derivation":"","codelist":null,"key_seq":null,"core":"Model Permissible","version":"1.0","status":"ACTIVE","effective_from":"2026-03-27T00:00:00.000Z","updated_at":"2026-03-27T00:00:00.000Z","updated_by":"CDISC Standards Lead","change_reason":"CDISC SDTM release"},{"study_id":"GLOBAL","standard":"SDTM","domain":"TS","name":"TSVAL9","label":"Parameter Value","type":"Char","length":200,"format":"","role":"RESULT QUALIFIER","origin":"CRF","derivation":"","codelist":null,"key_seq":null,"core":"Model Permissible","version":"1.0","status":"ACTIVE","effective_from":"2026-03-27T00:00:00.000Z","updated_at":"2026-03-27T00:00:00.000Z","updated_by":"CDISC Standards Lead","change_reason":"CDISC SDTM release"},{"study_id":"GLOBAL","standard":"SDTM","domain":"TS","name":"TSVAL10","label":"Parameter Value","type":"Char","length":200,"format":"","role":"RESULT QUALIFIER","origin":"CRF","derivation":"","codelist":null,"key_seq":null,"core":"Model Permissible","version":"1.0","status":"ACTIVE","effective_from":"2026-03-27T00:00:00.000Z","updated_at":"2026-03-27T00:00:00.000Z","updated_by":"CDISC Standards Lead","change_reason":"CDISC SDTM release"},{"study_id":"GLOBAL","standard":"SDTM","domain":"TS","name":"TSVALNF","label":"Parameter Value Null Flavor","type":"Char","length":200,"format":"","role":"RESULT QUALIFIER","origin":"CRF","derivation":"","codelist":null,"key_seq":null,"core":"Permissible","version":"1.0","status":"ACTIVE","effective_from":"2026-03-27T00:00:00.000Z","updated_at":"2026-03-27T00:00:00.000Z","updated_by":"CDISC Standards Lead","change_reason":"CDISC SDTM release"},{"study_id":"GLOBAL","standard":"SDTM","domain":"TS","name":"TSVALCD","label":"Parameter Value Code","type":"Char","length":200,"format":"","role":"RESULT QUALIFIER","origin":"CRF","derivation":"","codelist":null,"key_seq":null,"core":"Expected","version":"1.0","status":"ACTIVE","effective_from":"2026-03-27T00:00:00.000Z","updated_at":"2026-03-27T00:00:00.000Z","updated_by":"CDISC Standards Lead","change_reason":"CDISC SDTM release"},{"study_id":"GLOBAL","standard":"SDTM","domain":"TS","name":"TSVCDREF","label":"Name of the Reference Terminology","type":"Char","length":200,"format":"","role":"RESULT QUALIFIER","origin":"CRF","derivation":"","codelist":"DICTNAM","key_seq":null,"core":"Expected","version":"1.0","status":"ACTIVE","effective_from":"2026-03-27T00:00:00.000Z","updated_at":"2026-03-27T00:00:00.000Z","updated_by":"CDISC Standards Lead","change_reason":"CDISC SDTM release"},{"study_id":"GLOBAL","standard":"SDTM","domain":"TS","name":"TSVCDVER","label":"Version of the Reference Terminology","type":"Char","length":200,"format":"","role":"RESULT QUALIFIER","origin":"CRF","derivation":"","codelist":null,"key_seq":null,"core":"Expected","version":"1.0","status":"ACTIVE","effective_from":"2026-03-27T00:00:00.000Z","updated_at":"2026-03-27T00:00:00.000Z","updated_by":"CDISC Standards Lead","change_reason":"CDISC SDTM release"},{"study_id":"GLOBAL","standard":"SDTM","domain":"TV","name":"STUDYID","label":"Study Identifier","type":"Char","length":200,"format":"","role":"IDENTIFIER","origin":"ASSIGNED","derivation":"","codelist":null,"key_seq":1,"core":"Required","version":"1.0","status":"ACTIVE","effective_from":"2026-03-27T00:00:00.000Z","updated_at":"2026-03-27T00:00:00.000Z","updated_by":"CDISC Standards Lead","change_reason":"CDISC SDTM release"},{"study_id":"GLOBAL","standard":"SDTM","domain":"TV","name":"DOMAIN","label":"Domain Abbreviation","type":"Char","length":200,"format":"","role":"IDENTIFIER","origin":"ASSIGNED","derivation":"","codelist":null,"key_seq":null,"core":"Required","version":"1.0","status":"ACTIVE","effective_from":"2026-03-27T00:00:00.000Z","updated_at":"2026-03-27T00:00:00.000Z","updated_by":"CDISC Standards Lead","change_reason":"CDISC SDTM release"},{"study_id":"GLOBAL","standard":"SDTM","domain":"TV","name":"VISITNUM","label":"Visit Number","type":"Num","length":8,"format":"8.","role":"TOPIC","origin":"CRF","derivation":"","codelist":null,"key_seq":2,"core":"Required","version":"1.0","status":"ACTIVE","effective_from":"2026-03-27T00:00:00.000Z","updated_at":"2026-03-27T00:00:00.000Z","updated_by":"CDISC Standards Lead","change_reason":"CDISC SDTM release"},{"study_id":"GLOBAL","standard":"SDTM","domain":"TV","name":"VISIT","label":"Visit Name","type":"Char","length":200,"format":"","role":"SYNONYM QUALIFIER","origin":"CRF","derivation":"","codelist":null,"key_seq":null,"core":"Required","version":"1.0","status":"ACTIVE","effective_from":"2026-03-27T00:00:00.000Z","updated_at":"2026-03-27T00:00:00.000Z","updated_by":"CDISC Standards Lead","change_reason":"CDISC SDTM release"},{"study_id":"GLOBAL","standard":"SDTM","domain":"TV","name":"VISITDY","label":"Planned Study Day of Visit","type":"Num","length":8,"format":"8.","role":"TIMING","origin":"CRF","derivation":"","codelist":null,"key_seq":null,"core":"Permissible","version":"1.0","status":"ACTIVE","effective_from":"2026-03-27T00:00:00.000Z","updated_at":"2026-03-27T00:00:00.000Z","updated_by":"CDISC Standards Lead","change_reason":"CDISC SDTM release"},{"study_id":"GLOBAL","standard":"SDTM","domain":"TV","name":"ARMCD","label":"Planned Arm Code","type":"Char","length":200,"format":"","role":"RECORD QUALIFIER","origin":"CRF","derivation":"","codelist":null,"key_seq":3,"core":"Expected","version":"1.0","status":"ACTIVE","effective_from":"2026-03-27T00:00:00.000Z","updated_at":"2026-03-27T00:00:00.000Z","updated_by":"CDISC Standards Lead","change_reason":"CDISC SDTM release"},{"study_id":"GLOBAL","standard":"SDTM","domain":"TV","name":"ARM","label":"Description of Planned Arm","type":"Char","length":200,"format":"","role":"SYNONYM QUALIFIER","origin":"CRF","derivation":"","codelist":null,"key_seq":null,"core":"Permissible","version":"1.0","status":"ACTIVE","effective_from":"2026-03-27T00:00:00.000Z","updated_at":"2026-03-27T00:00:00.000Z","updated_by":"CDISC Standards Lead","change_reason":"CDISC SDTM release"},{"study_id":"GLOBAL","standard":"SDTM","domain":"TV","name":"TVSTRL","label":"Visit Start Rule","type":"Char","length":200,"format":"","role":"RULE","origin":"CRF","derivation":"","codelist":null,"key_seq":null,"core":"Required","version":"1.0","status":"ACTIVE","effective_from":"2026-03-27T00:00:00.000Z","updated_at":"2026-03-27T00:00:00.000Z","updated_by":"CDISC Standards Lead","change_reason":"CDISC SDTM release"},{"study_id":"GLOBAL","standard":"SDTM","domain":"TV","name":"TVENRL","label":"Visit End Rule","type":"Char","length":200,"format":"","role":"RULE","origin":"CRF","derivation":"","codelist":null,"key_seq":null,"core":"Permissible","version":"1.0","status":"ACTIVE","effective_from":"2026-03-27T00:00:00.000Z","updated_at":"2026-03-27T00:00:00.000Z","updated_by":"CDISC Standards Lead","change_reason":"CDISC SDTM release"},{"study_id":"GLOBAL","standard":"SDTM","domain":"APCO","name":"STUDYID","label":"Study Identifier","type":"Char","length":200,"format":"","role":"IDENTIFIER","origin":"ASSIGNED","derivation":"","codelist":null,"key_seq":1,"core":"Required","version":"1.0","status":"ACTIVE","effective_from":"2026-03-27T00:00:00.000Z","updated_at":"2026-03-27T00:00:00.000Z","updated_by":"CDISC Standards Lead","change_reason":"CDISC SDTM release"},{"study_id":"GLOBAL","standard":"SDTM","domain":"APCO","name":"DOMAIN","label":"Domain Abbreviation","type":"Char","length":200,"format":"","role":"IDENTIFIER","origin":"ASSIGNED","derivation":"","codelist":null,"key_seq":null,"core":"Required","version":"1.0","status":"ACTIVE","effective_from":"2026-03-27T00:00:00.000Z","updated_at":"2026-03-27T00:00:00.000Z","updated_by":"CDISC Standards Lead","change_reason":"CDISC SDTM release"},{"study_id":"GLOBAL","standard":"SDTM","domain":"APCO","name":"RDOMAIN","label":"Related Domain Abbreviation","type":"Char","length":200,"format":"","role":"RECORD QUALIFIER","origin":"CRF","derivation":"","codelist":null,"key_seq":2,"core":"Permissible","version":"1.0","status":"ACTIVE","effective_from":"2026-03-27T00:00:00.000Z","updated_at":"2026-03-27T00:00:00.000Z","updated_by":"CDISC Standards Lead","change_reason":"CDISC SDTM release"},{"study_id":"GLOBAL","standard":"SDTM","domain":"APCO","name":"USUBJID","label":"Unique Subject Identifier","type":"Char","length":200,"format":"","role":"IDENTIFIER","origin":"CRF","derivation":"","codelist":null,"key_seq":null,"core":"Prohibited","version":"1.0","status":"ACTIVE","effective_from":"2026-03-27T00:00:00.000Z","updated_at":"2026-03-27T00:00:00.000Z","updated_by":"CDISC Standards Lead","change_reason":"CDISC SDTM release"},{"study_id":"GLOBAL","standard":"SDTM","domain":"APCO","name":"APID","label":"Associated Persons Identifier","type":"Char","length":200,"format":"","role":"IDENTIFIER","origin":"CRF","derivation":"","codelist":null,"key_seq":3,"core":"Required","version":"1.0","status":"ACTIVE","effective_from":"2026-03-27T00:00:00.000Z","updated_at":"2026-03-27T00:00:00.000Z","updated_by":"CDISC Standards Lead","change_reason":"CDISC SDTM release"},{"study_id":"GLOBAL","standard":"SDTM","domain":"APCO","name":"POOLID","label":"Pool Identifier","type":"Char","length":200,"format":"","role":"IDENTIFIER","origin":"CRF","derivation":"","codelist":null,"key_seq":null,"core":"Prohibited","version":"1.0","status":"ACTIVE","effective_from":"2026-03-27T00:00:00.000Z","updated_at":"2026-03-27T00:00:00.000Z","updated_by":"CDISC Standards Lead","change_reason":"CDISC SDTM release"},{"study_id":"GLOBAL","standard":"SDTM","domain":"APCO","name":"SPDEVID","label":"Sponsor Device Identifier","type":"Char","length":200,"format":"","role":"IDENTIFIER","origin":"CRF","derivation":"","codelist":null,"key_seq":null,"core":"Prohibited","version":"1.0","status":"ACTIVE","effective_from":"2026-03-27T00:00:00.000Z","updated_at":"2026-03-27T00:00:00.000Z","updated_by":"CDISC Standards Lead","change_reason":"CDISC SDTM release"},{"study_id":"GLOBAL","standard":"SDTM","domain":"APCO","name":"COGRPID","label":"Group ID","type":"Char","length":200,"format":"","role":"IDENTIFIER","origin":"CRF","derivation":"","codelist":null,"key_seq":null,"core":"Not Recommended","version":"1.0","status":"ACTIVE","effective_from":"2026-03-27T00:00:00.000Z","updated_at":"2026-03-27T00:00:00.000Z","updated_by":"CDISC Standards Lead","change_reason":"CDISC SDTM release"},{"study_id":"GLOBAL","standard":"SDTM","domain":"APCO","name":"COSEQ","label":"Sequence Number","type":"Num","length":8,"format":"8.","role":"IDENTIFIER","origin":"DERIVED","derivation":"","codelist":null,"key_seq":4,"core":"Required","version":"1.0","status":"ACTIVE","effective_from":"2026-03-27T00:00:00.000Z","updated_at":"2026-03-27T00:00:00.000Z","updated_by":"CDISC Standards Lead","change_reason":"CDISC SDTM release"},{"study_id":"GLOBAL","standard":"SDTM","domain":"APCO","name":"COREFID","label":"Reference ID","type":"Char","length":200,"format":"","role":"IDENTIFIER","origin":"CRF","derivation":"","codelist":null,"key_seq":null,"core":"Not Recommended","version":"1.0","status":"ACTIVE","effective_from":"2026-03-27T00:00:00.000Z","updated_at":"2026-03-27T00:00:00.000Z","updated_by":"CDISC Standards Lead","change_reason":"CDISC SDTM release"},{"study_id":"GLOBAL","standard":"SDTM","domain":"APCO","name":"RSUBJID","label":"Related Subject","type":"Char","length":200,"format":"","role":"IDENTIFIER","origin":"CRF","derivation":"","codelist":null,"key_seq":null,"core":"Expected","version":"1.0","status":"ACTIVE","effective_from":"2026-03-27T00:00:00.000Z","updated_at":"2026-03-27T00:00:00.000Z","updated_by":"CDISC Standards Lead","change_reason":"CDISC SDTM release"},{"study_id":"GLOBAL","standard":"SDTM","domain":"APCO","name":"CORECID","label":"Invariant Record Identifier","type":"Char","length":200,"format":"","role":"IDENTIFIER","origin":"CRF","derivation":"","codelist":null,"key_seq":null,"core":"Model Permissible","version":"1.0","status":"ACTIVE","effective_from":"2026-03-27T00:00:00.000Z","updated_at":"2026-03-27T00:00:00.000Z","updated_by":"CDISC Standards Lead","change_reason":"CDISC SDTM release"},{"study_id":"GLOBAL","standard":"SDTM","domain":"APCO","name":"RDEVID","label":"Related Device","type":"Char","length":200,"format":"","role":"IDENTIFIER","origin":"CRF","derivation":"","codelist":null,"key_seq":null,"core":"Permissible","version":"1.0","status":"ACTIVE","effective_from":"2026-03-27T00:00:00.000Z","updated_at":"2026-03-27T00:00:00.000Z","updated_by":"CDISC Standards Lead","change_reason":"CDISC SDTM release"},{"study_id":"GLOBAL","standard":"SDTM","domain":"APCO","name":"COSPID","label":"Sponsor-Defined Identifier","type":"Char","length":200,"format":"","role":"IDENTIFIER","origin":"CRF","derivation":"","codelist":null,"key_seq":null,"core":"Not Recommended","version":"1.0","status":"ACTIVE","effective_from":"2026-03-27T00:00:00.000Z","updated_at":"2026-03-27T00:00:00.000Z","updated_by":"CDISC Standards Lead","change_reason":"CDISC SDTM release"},{"study_id":"GLOBAL","standard":"SDTM","domain":"APCO","name":"SREL","label":"Subject, Device, or Study Relationship","type":"Char","length":200,"format":"","role":"RECORD QUALIFIER","origin":"CRF","derivation":"","codelist":"RELSUB","key_seq":null,"core":"Required","version":"1.0","status":"ACTIVE","effective_from":"2026-03-27T00:00:00.000Z","updated_at":"2026-03-27T00:00:00.000Z","updated_by":"CDISC Standards Lead","change_reason":"CDISC SDTM release"},{"study_id":"GLOBAL","standard":"SDTM","domain":"APCO","name":"COLNKID","label":"Link ID","type":"Char","length":200,"format":"","role":"IDENTIFIER","origin":"CRF","derivation":"","codelist":null,"key_seq":null,"core":"Model Permissible","version":"1.0","status":"ACTIVE","effective_from":"2026-03-27T00:00:00.000Z","updated_at":"2026-03-27T00:00:00.000Z","updated_by":"CDISC Standards Lead","change_reason":"CDISC SDTM release"},{"study_id":"GLOBAL","standard":"SDTM","domain":"APCO","name":"COLNKGRP","label":"Link Group ID","type":"Char","length":200,"format":"","role":"IDENTIFIER","origin":"CRF","derivation":"","codelist":null,"key_seq":null,"core":"Model Permissible","version":"1.0","status":"ACTIVE","effective_from":"2026-03-27T00:00:00.000Z","updated_at":"2026-03-27T00:00:00.000Z","updated_by":"CDISC Standards Lead","change_reason":"CDISC SDTM release"},{"study_id":"GLOBAL","standard":"SDTM","domain":"APCO","name":"IDVAR","label":"Identifying Variable","type":"Char","length":200,"format":"","role":"RECORD QUALIFIER","origin":"CRF","derivation":"","codelist":null,"key_seq":null,"core":"Permissible","version":"1.0","status":"ACTIVE","effective_from":"2026-03-27T00:00:00.000Z","updated_at":"2026-03-27T00:00:00.000Z","updated_by":"CDISC Standards Lead","change_reason":"CDISC SDTM release"},{"study_id":"GLOBAL","standard":"SDTM","domain":"APCO","name":"IDVARVAL","label":"Identifying Variable Value","type":"Char","length":200,"format":"","role":"RECORD QUALIFIER","origin":"CRF","derivation":"","codelist":null,"key_seq":null,"core":"Permissible","version":"1.0","status":"ACTIVE","effective_from":"2026-03-27T00:00:00.000Z","updated_at":"2026-03-27T00:00:00.000Z","updated_by":"CDISC Standards Lead","change_reason":"CDISC SDTM release"},{"study_id":"GLOBAL","standard":"SDTM","domain":"APCO","name":"COREF","label":"Comment Reference","type":"Char","length":200,"format":"","role":"RECORD QUALIFIER","origin":"CRF","derivation":"","codelist":null,"key_seq":null,"core":"Permissible","version":"1.0","status":"ACTIVE","effective_from":"2026-03-27T00:00:00.000Z","updated_at":"2026-03-27T00:00:00.000Z","updated_by":"CDISC Standards Lead","change_reason":"CDISC SDTM release"},{"study_id":"GLOBAL","standard":"SDTM","domain":"APCO","name":"COVAL","label":"Comment","type":"Char","length":200,"format":"","role":"TOPIC","origin":"CRF","derivation":"","codelist":null,"key_seq":null,"core":"Required","version":"1.0","status":"ACTIVE","effective_from":"2026-03-27T00:00:00.000Z","updated_at":"2026-03-27T00:00:00.000Z","updated_by":"CDISC Standards Lead","change_reason":"CDISC SDTM release"},{"study_id":"GLOBAL","standard":"SDTM","domain":"APCO","name":"COVAL1","label":"Comment","type":"Char","length":200,"format":"","role":"TOPIC","origin":"CRF","derivation":"","codelist":null,"key_seq":null,"core":"Model Permissible","version":"1.0","status":"ACTIVE","effective_from":"2026-03-27T00:00:00.000Z","updated_at":"2026-03-27T00:00:00.000Z","updated_by":"CDISC Standards Lead","change_reason":"CDISC SDTM release"},{"study_id":"GLOBAL","standard":"SDTM","domain":"APCO","name":"COVAL2","label":"Comment","type":"Char","length":200,"format":"","role":"TOPIC","origin":"CRF","derivation":"","codelist":null,"key_seq":null,"core":"Model Permissible","version":"1.0","status":"ACTIVE","effective_from":"2026-03-27T00:00:00.000Z","updated_at":"2026-03-27T00:00:00.000Z","updated_by":"CDISC Standards Lead","change_reason":"CDISC SDTM release"},{"study_id":"GLOBAL","standard":"SDTM","domain":"APCO","name":"COVAL3","label":"Comment","type":"Char","length":200,"format":"","role":"TOPIC","origin":"CRF","derivation":"","codelist":null,"key_seq":null,"core":"Model Permissible","version":"1.0","status":"ACTIVE","effective_from":"2026-03-27T00:00:00.000Z","updated_at":"2026-03-27T00:00:00.000Z","updated_by":"CDISC Standards Lead","change_reason":"CDISC SDTM release"},{"study_id":"GLOBAL","standard":"SDTM","domain":"APCO","name":"COVAL4","label":"Comment","type":"Char","length":200,"format":"","role":"TOPIC","origin":"CRF","derivation":"","codelist":null,"key_seq":null,"core":"Model Permissible","version":"1.0","status":"ACTIVE","effective_from":"2026-03-27T00:00:00.000Z","updated_at":"2026-03-27T00:00:00.000Z","updated_by":"CDISC Standards Lead","change_reason":"CDISC SDTM release"},{"study_id":"GLOBAL","standard":"SDTM","domain":"APCO","name":"COVAL5","label":"Comment","type":"Char","length":200,"format":"","role":"TOPIC","origin":"CRF","derivation":"","codelist":null,"key_seq":null,"core":"Model Permissible","version":"1.0","status":"ACTIVE","effective_from":"2026-03-27T00:00:00.000Z","updated_at":"2026-03-27T00:00:00.000Z","updated_by":"CDISC Standards Lead","change_reason":"CDISC SDTM release"},{"study_id":"GLOBAL","standard":"SDTM","domain":"APCO","name":"COVAL6","label":"Comment","type":"Char","length":200,"format":"","role":"TOPIC","origin":"CRF","derivation":"","codelist":null,"key_seq":null,"core":"Model Permissible","version":"1.0","status":"ACTIVE","effective_from":"2026-03-27T00:00:00.000Z","updated_at":"2026-03-27T00:00:00.000Z","updated_by":"CDISC Standards Lead","change_reason":"CDISC SDTM release"},{"study_id":"GLOBAL","standard":"SDTM","domain":"APCO","name":"COVAL7","label":"Comment","type":"Char","length":200,"format":"","role":"TOPIC","origin":"CRF","derivation":"","codelist":null,"key_seq":null,"core":"Model Permissible","version":"1.0","status":"ACTIVE","effective_from":"2026-03-27T00:00:00.000Z","updated_at":"2026-03-27T00:00:00.000Z","updated_by":"CDISC Standards Lead","change_reason":"CDISC SDTM release"},{"study_id":"GLOBAL","standard":"SDTM","domain":"APCO","name":"COVAL8","label":"Comment","type":"Char","length":200,"format":"","role":"TOPIC","origin":"CRF","derivation":"","codelist":null,"key_seq":null,"core":"Model Permissible","version":"1.0","status":"ACTIVE","effective_from":"2026-03-27T00:00:00.000Z","updated_at":"2026-03-27T00:00:00.000Z","updated_by":"CDISC Standards Lead","change_reason":"CDISC SDTM release"},{"study_id":"GLOBAL","standard":"SDTM","domain":"APCO","name":"COVAL9","label":"Comment","type":"Char","length":200,"format":"","role":"TOPIC","origin":"CRF","derivation":"","codelist":null,"key_seq":null,"core":"Model Permissible","version":"1.0","status":"ACTIVE","effective_from":"2026-03-27T00:00:00.000Z","updated_at":"2026-03-27T00:00:00.000Z","updated_by":"CDISC Standards Lead","change_reason":"CDISC SDTM release"},{"study_id":"GLOBAL","standard":"SDTM","domain":"APCO","name":"COVAL10","label":"Comment","type":"Char","length":200,"format":"","role":"TOPIC","origin":"CRF","derivation":"","codelist":null,"key_seq":null,"core":"Model Permissible","version":"1.0","status":"ACTIVE","effective_from":"2026-03-27T00:00:00.000Z","updated_at":"2026-03-27T00:00:00.000Z","updated_by":"CDISC Standards Lead","change_reason":"CDISC SDTM release"},{"study_id":"GLOBAL","standard":"SDTM","domain":"APCO","name":"COEVAL","label":"Evaluator","type":"Char","length":200,"format":"","role":"RECORD QUALIFIER","origin":"CRF","derivation":"","codelist":"EVAL","key_seq":null,"core":"Permissible","version":"1.0","status":"ACTIVE","effective_from":"2026-03-27T00:00:00.000Z","updated_at":"2026-03-27T00:00:00.000Z","updated_by":"CDISC Standards Lead","change_reason":"CDISC SDTM release"},{"study_id":"GLOBAL","standard":"SDTM","domain":"APCO","name":"COEVALID","label":"Evaluator Identifier","type":"Char","length":200,"format":"","role":"RECORD QUALIFIER","origin":"CRF","derivation":"","codelist":"MEDEVAL","key_seq":null,"core":"Permissible","version":"1.0","status":"ACTIVE","effective_from":"2026-03-27T00:00:00.000Z","updated_at":"2026-03-27T00:00:00.000Z","updated_by":"CDISC Standards Lead","change_reason":"CDISC SDTM release"},{"study_id":"GLOBAL","standard":"SDTM","domain":"APCO","name":"VISITNUM","label":"Visit Number","type":"Num","length":8,"format":"8.","role":"TIMING","origin":"CRF","derivation":"","codelist":null,"key_seq":null,"core":"Model Permissible","version":"1.0","status":"ACTIVE","effective_from":"2026-03-27T00:00:00.000Z","updated_at":"2026-03-27T00:00:00.000Z","updated_by":"CDISC Standards Lead","change_reason":"CDISC SDTM release"},{"study_id":"GLOBAL","standard":"SDTM","domain":"APCO","name":"VISIT","label":"Visit Name","type":"Char","length":200,"format":"","role":"TIMING","origin":"CRF","derivation":"","codelist":null,"key_seq":null,"core":"Model Permissible","version":"1.0","status":"ACTIVE","effective_from":"2026-03-27T00:00:00.000Z","updated_at":"2026-03-27T00:00:00.000Z","updated_by":"CDISC Standards Lead","change_reason":"CDISC SDTM release"},{"study_id":"GLOBAL","standard":"SDTM","domain":"APCO","name":"VISITDY","label":"Planned Study Day of Visit","type":"Num","length":8,"format":"8.","role":"TIMING","origin":"CRF","derivation":"","codelist":null,"key_seq":null,"core":"Model Permissible","version":"1.0","status":"ACTIVE","effective_from":"2026-03-27T00:00:00.000Z","updated_at":"2026-03-27T00:00:00.000Z","updated_by":"CDISC Standards Lead","change_reason":"CDISC SDTM release"},{"study_id":"GLOBAL","standard":"SDTM","domain":"APCO","name":"TAETORD","label":"Planned Order of Element within Arm","type":"Num","length":8,"format":"8.","role":"TIMING","origin":"CRF","derivation":"","codelist":null,"key_seq":null,"core":"Not Recommended","version":"1.0","status":"ACTIVE","effective_from":"2026-03-27T00:00:00.000Z","updated_at":"2026-03-27T00:00:00.000Z","updated_by":"CDISC Standards Lead","change_reason":"CDISC SDTM release"},{"study_id":"GLOBAL","standard":"SDTM","domain":"APCO","name":"CODTC","label":"Date/Time of Comment","type":"Char","length":200,"format":"","role":"TIMING","origin":"CRF","derivation":"","codelist":null,"key_seq":null,"core":"Permissible","version":"1.0","status":"ACTIVE","effective_from":"2026-03-27T00:00:00.000Z","updated_at":"2026-03-27T00:00:00.000Z","updated_by":"CDISC Standards Lead","change_reason":"CDISC SDTM release"},{"study_id":"GLOBAL","standard":"SDTM","domain":"APCO","name":"CODY","label":"Study Day of Comment","type":"Num","length":8,"format":"8.","role":"TIMING","origin":"CRF","derivation":"","codelist":null,"key_seq":null,"core":"Permissible","version":"1.0","status":"ACTIVE","effective_from":"2026-03-27T00:00:00.000Z","updated_at":"2026-03-27T00:00:00.000Z","updated_by":"CDISC Standards Lead","change_reason":"CDISC SDTM release"},{"study_id":"GLOBAL","standard":"SDTM","domain":"APCO","name":"COTPT","label":"Planned Time Point Name","type":"Char","length":200,"format":"","role":"TIMING","origin":"CRF","derivation":"","codelist":null,"key_seq":null,"core":"Not Recommended","version":"1.0","status":"ACTIVE","effective_from":"2026-03-27T00:00:00.000Z","updated_at":"2026-03-27T00:00:00.000Z","updated_by":"CDISC Standards Lead","change_reason":"CDISC SDTM release"},{"study_id":"GLOBAL","standard":"SDTM","domain":"APCO","name":"COTPTNUM","label":"Planned Time Point Number","type":"Num","length":8,"format":"8.","role":"TIMING","origin":"CRF","derivation":"","codelist":null,"key_seq":null,"core":"Not Recommended","version":"1.0","status":"ACTIVE","effective_from":"2026-03-27T00:00:00.000Z","updated_at":"2026-03-27T00:00:00.000Z","updated_by":"CDISC Standards Lead","change_reason":"CDISC SDTM release"},{"study_id":"GLOBAL","standard":"SDTM","domain":"APCO","name":"COELTM","label":"Planned Elapsed Time from Time Point Ref","type":"Char","length":200,"format":"","role":"TIMING","origin":"CRF","derivation":"","codelist":null,"key_seq":null,"core":"Not Recommended","version":"1.0","status":"ACTIVE","effective_from":"2026-03-27T00:00:00.000Z","updated_at":"2026-03-27T00:00:00.000Z","updated_by":"CDISC Standards Lead","change_reason":"CDISC SDTM release"},{"study_id":"GLOBAL","standard":"SDTM","domain":"APCO","name":"COTPTREF","label":"Time Point Reference","type":"Char","length":200,"format":"","role":"TIMING","origin":"CRF","derivation":"","codelist":null,"key_seq":null,"core":"Not Recommended","version":"1.0","status":"ACTIVE","effective_from":"2026-03-27T00:00:00.000Z","updated_at":"2026-03-27T00:00:00.000Z","updated_by":"CDISC Standards Lead","change_reason":"CDISC SDTM release"},{"study_id":"GLOBAL","standard":"SDTM","domain":"APCO","name":"CORFTDTC","label":"Date/Time of Reference Time Point","type":"Char","length":200,"format":"","role":"TIMING","origin":"CRF","derivation":"","codelist":null,"key_seq":null,"core":"Not Recommended","version":"1.0","status":"ACTIVE","effective_from":"2026-03-27T00:00:00.000Z","updated_at":"2026-03-27T00:00:00.000Z","updated_by":"CDISC Standards Lead","change_reason":"CDISC SDTM release"},{"study_id":"GLOBAL","standard":"SDTM","domain":"APDM","name":"STUDYID","label":"Study Identifier","type":"Char","length":200,"format":"","role":"IDENTIFIER","origin":"ASSIGNED","derivation":"","codelist":null,"key_seq":1,"core":"Required","version":"1.0","status":"ACTIVE","effective_from":"2026-03-27T00:00:00.000Z","updated_at":"2026-03-27T00:00:00.000Z","updated_by":"CDISC Standards Lead","change_reason":"CDISC SDTM release"},{"study_id":"GLOBAL","standard":"SDTM","domain":"APDM","name":"DOMAIN","label":"Domain Abbreviation","type":"Char","length":200,"format":"","role":"IDENTIFIER","origin":"ASSIGNED","derivation":"","codelist":null,"key_seq":null,"core":"Required","version":"1.0","status":"ACTIVE","effective_from":"2026-03-27T00:00:00.000Z","updated_at":"2026-03-27T00:00:00.000Z","updated_by":"CDISC Standards Lead","change_reason":"CDISC SDTM release"},{"study_id":"GLOBAL","standard":"SDTM","domain":"APDM","name":"USUBJID","label":"Unique Subject Identifier","type":"Char","length":200,"format":"","role":"IDENTIFIER","origin":"CRF","derivation":"","codelist":null,"key_seq":null,"core":"Prohibited","version":"1.0","status":"ACTIVE","effective_from":"2026-03-27T00:00:00.000Z","updated_at":"2026-03-27T00:00:00.000Z","updated_by":"CDISC Standards Lead","change_reason":"CDISC SDTM release"},{"study_id":"GLOBAL","standard":"SDTM","domain":"APDM","name":"SUBJID","label":"Subject Identifier for the Study","type":"Char","length":200,"format":"","role":"TOPIC","origin":"CRF","derivation":"","codelist":null,"key_seq":null,"core":"Prohibited","version":"1.0","status":"ACTIVE","effective_from":"2026-03-27T00:00:00.000Z","updated_at":"2026-03-27T00:00:00.000Z","updated_by":"CDISC Standards Lead","change_reason":"CDISC SDTM release"},{"study_id":"GLOBAL","standard":"SDTM","domain":"APDM","name":"APID","label":"Associated Persons Identifier","type":"Char","length":200,"format":"","role":"TOPIC","origin":"CRF","derivation":"","codelist":null,"key_seq":2,"core":"Required","version":"1.0","status":"ACTIVE","effective_from":"2026-03-27T00:00:00.000Z","updated_at":"2026-03-27T00:00:00.000Z","updated_by":"CDISC Standards Lead","change_reason":"CDISC SDTM release"},{"study_id":"GLOBAL","standard":"SDTM","domain":"APDM","name":"RSUBJID","label":"Related Subject","type":"Char","length":200,"format":"","role":"IDENTIFIER","origin":"CRF","derivation":"","codelist":null,"key_seq":null,"core":"Expected","version":"1.0","status":"ACTIVE","effective_from":"2026-03-27T00:00:00.000Z","updated_at":"2026-03-27T00:00:00.000Z","updated_by":"CDISC Standards Lead","change_reason":"CDISC SDTM release"},{"study_id":"GLOBAL","standard":"SDTM","domain":"APDM","name":"RDEVID","label":"Related Device","type":"Char","length":200,"format":"","role":"IDENTIFIER","origin":"CRF","derivation":"","codelist":null,"key_seq":null,"core":"Permissible","version":"1.0","status":"ACTIVE","effective_from":"2026-03-27T00:00:00.000Z","updated_at":"2026-03-27T00:00:00.000Z","updated_by":"CDISC Standards Lead","change_reason":"CDISC SDTM release"},{"study_id":"GLOBAL","standard":"SDTM","domain":"APDM","name":"SREL","label":"Subject, Device, or Study Relationship","type":"Char","length":200,"format":"","role":"RECORD QUALIFIER","origin":"CRF","derivation":"","codelist":"RELSUB","key_seq":null,"core":"Required","version":"1.0","status":"ACTIVE","effective_from":"2026-03-27T00:00:00.000Z","updated_at":"2026-03-27T00:00:00.000Z","updated_by":"CDISC Standards Lead","change_reason":"CDISC SDTM release"},{"study_id":"GLOBAL","standard":"SDTM","domain":"APDM","name":"RFCSTDTC","label":"Date/Time of First Challenge Agent Admin","type":"Char","length":200,"format":"","role":"RECORD QUALIFIER","origin":"DERIVED","derivation":"","codelist":null,"key_seq":null,"core":"Permissible","version":"1.0","status":"ACTIVE","effective_from":"2026-03-27T00:00:00.000Z","updated_at":"2026-03-27T00:00:00.000Z","updated_by":"CDISC Standards Lead","change_reason":"CDISC SDTM release"},{"study_id":"GLOBAL","standard":"SDTM","domain":"APDM","name":"RFSTDTC","label":"Subject Reference Start Date/Time","type":"Char","length":200,"format":"","role":"RECORD QUALIFIER","origin":"DERIVED","derivation":"","codelist":null,"key_seq":null,"core":"Prohibited","version":"1.0","status":"ACTIVE","effective_from":"2026-03-27T00:00:00.000Z","updated_at":"2026-03-27T00:00:00.000Z","updated_by":"CDISC Standards Lead","change_reason":"CDISC SDTM release"},{"study_id":"GLOBAL","standard":"SDTM","domain":"APDM","name":"RFCENDTC","label":"Date/Time of Last Challenge Agent Admin","type":"Char","length":200,"format":"","role":"RECORD QUALIFIER","origin":"DERIVED","derivation":"","codelist":null,"key_seq":null,"core":"Permissible","version":"1.0","status":"ACTIVE","effective_from":"2026-03-27T00:00:00.000Z","updated_at":"2026-03-27T00:00:00.000Z","updated_by":"CDISC Standards Lead","change_reason":"CDISC SDTM release"},{"study_id":"GLOBAL","standard":"SDTM","domain":"APDM","name":"RFENDTC","label":"Subject Reference End Date/Time","type":"Char","length":200,"format":"","role":"RECORD QUALIFIER","origin":"DERIVED","derivation":"","codelist":null,"key_seq":null,"core":"Prohibited","version":"1.0","status":"ACTIVE","effective_from":"2026-03-27T00:00:00.000Z","updated_at":"2026-03-27T00:00:00.000Z","updated_by":"CDISC Standards Lead","change_reason":"CDISC SDTM release"},{"study_id":"GLOBAL","standard":"SDTM","domain":"APDM","name":"RFXSTDTC","label":"Date/Time of First Study Treatment","type":"Char","length":200,"format":"","role":"RECORD QUALIFIER","origin":"DERIVED","derivation":"","codelist":null,"key_seq":null,"core":"Prohibited","version":"1.0","status":"ACTIVE","effective_from":"2026-03-27T00:00:00.000Z","updated_at":"2026-03-27T00:00:00.000Z","updated_by":"CDISC Standards Lead","change_reason":"CDISC SDTM release"},{"study_id":"GLOBAL","standard":"SDTM","domain":"APDM","name":"RFXENDTC","label":"Date/Time of Last Study Treatment","type":"Char","length":200,"format":"","role":"RECORD QUALIFIER","origin":"DERIVED","derivation":"","codelist":null,"key_seq":null,"core":"Prohibited","version":"1.0","status":"ACTIVE","effective_from":"2026-03-27T00:00:00.000Z","updated_at":"2026-03-27T00:00:00.000Z","updated_by":"CDISC Standards Lead","change_reason":"CDISC SDTM release"},{"study_id":"GLOBAL","standard":"SDTM","domain":"APDM","name":"RFICDTC","label":"Date/Time of Informed Consent","type":"Char","length":200,"format":"","role":"RECORD QUALIFIER","origin":"DERIVED","derivation":"","codelist":null,"key_seq":null,"core":"Prohibited","version":"1.0","status":"ACTIVE","effective_from":"2026-03-27T00:00:00.000Z","updated_at":"2026-03-27T00:00:00.000Z","updated_by":"CDISC Standards Lead","change_reason":"CDISC SDTM release"},{"study_id":"GLOBAL","standard":"SDTM","domain":"APDM","name":"RFPENDTC","label":"Date/Time of End of Participation","type":"Char","length":200,"format":"","role":"RECORD QUALIFIER","origin":"DERIVED","derivation":"","codelist":null,"key_seq":null,"core":"Prohibited","version":"1.0","status":"ACTIVE","effective_from":"2026-03-27T00:00:00.000Z","updated_at":"2026-03-27T00:00:00.000Z","updated_by":"CDISC Standards Lead","change_reason":"CDISC SDTM release"},{"study_id":"GLOBAL","standard":"SDTM","domain":"APDM","name":"DTHDTC","label":"Date/Time of Death","type":"Char","length":200,"format":"","role":"RECORD QUALIFIER","origin":"CRF","derivation":"","codelist":null,"key_seq":null,"core":"Permissible","version":"1.0","status":"ACTIVE","effective_from":"2026-03-27T00:00:00.000Z","updated_at":"2026-03-27T00:00:00.000Z","updated_by":"CDISC Standards Lead","change_reason":"CDISC SDTM release"},{"study_id":"GLOBAL","standard":"SDTM","domain":"APDM","name":"DTHFL","label":"Associated Persons Death Flag","type":"Char","length":200,"format":"","role":"RECORD QUALIFIER","origin":"CRF","derivation":"","codelist":"Y","key_seq":null,"core":"Permissible","version":"1.0","status":"ACTIVE","effective_from":"2026-03-27T00:00:00.000Z","updated_at":"2026-03-27T00:00:00.000Z","updated_by":"CDISC Standards Lead","change_reason":"CDISC SDTM release"},{"study_id":"GLOBAL","standard":"SDTM","domain":"APDM","name":"INVID","label":"Investigator Identifier","type":"Char","length":200,"format":"","role":"RECORD QUALIFIER","origin":"CRF","derivation":"","codelist":null,"key_seq":null,"core":"Permissible","version":"1.0","status":"ACTIVE","effective_from":"2026-03-27T00:00:00.000Z","updated_at":"2026-03-27T00:00:00.000Z","updated_by":"CDISC Standards Lead","change_reason":"CDISC SDTM release"},{"study_id":"GLOBAL","standard":"SDTM","domain":"APDM","name":"SITEID","label":"Study Site Identifier","type":"Char","length":200,"format":"","role":"RECORD QUALIFIER","origin":"CRF","derivation":"","codelist":null,"key_seq":null,"core":"Model Permissible","version":"1.0","status":"ACTIVE","effective_from":"2026-03-27T00:00:00.000Z","updated_at":"2026-03-27T00:00:00.000Z","updated_by":"CDISC Standards Lead","change_reason":"CDISC SDTM release"},{"study_id":"GLOBAL","standard":"SDTM","domain":"APDM","name":"INVNAM","label":"Investigator Name","type":"Char","length":200,"format":"","role":"SYNONYM QUALIFIER","origin":"CRF","derivation":"","codelist":null,"key_seq":null,"core":"Permissible","version":"1.0","status":"ACTIVE","effective_from":"2026-03-27T00:00:00.000Z","updated_at":"2026-03-27T00:00:00.000Z","updated_by":"CDISC Standards Lead","change_reason":"CDISC SDTM release"},{"study_id":"GLOBAL","standard":"SDTM","domain":"APDM","name":"BRTHDTC","label":"Date/Time of Birth","type":"Char","length":200,"format":"","role":"RECORD QUALIFIER","origin":"CRF","derivation":"","codelist":null,"key_seq":null,"core":"Permissible","version":"1.0","status":"ACTIVE","effective_from":"2026-03-27T00:00:00.000Z","updated_at":"2026-03-27T00:00:00.000Z","updated_by":"CDISC Standards Lead","change_reason":"CDISC SDTM release"},{"study_id":"GLOBAL","standard":"SDTM","domain":"APDM","name":"AGE","label":"Age","type":"Num","length":8,"format":"8.","role":"RECORD QUALIFIER","origin":"CRF","derivation":"","codelist":null,"key_seq":null,"core":"Permissible","version":"1.0","status":"ACTIVE","effective_from":"2026-03-27T00:00:00.000Z","updated_at":"2026-03-27T00:00:00.000Z","updated_by":"CDISC Standards Lead","change_reason":"CDISC SDTM release"},{"study_id":"GLOBAL","standard":"SDTM","domain":"APDM","name":"AGETXT","label":"Age Range","type":"Char","length":200,"format":"","role":"RECORD QUALIFIER","origin":"CRF","derivation":"","codelist":null,"key_seq":null,"core":"SEND Only","version":"1.0","status":"ACTIVE","effective_from":"2026-03-27T00:00:00.000Z","updated_at":"2026-03-27T00:00:00.000Z","updated_by":"CDISC Standards Lead","change_reason":"CDISC SDTM release"},{"study_id":"GLOBAL","standard":"SDTM","domain":"APDM","name":"AGEU","label":"Age Units","type":"Char","length":200,"format":"","role":"VARIABLE QUALIFIER","origin":"CRF","derivation":"","codelist":"AGEU","key_seq":null,"core":"Permissible","version":"1.0","status":"ACTIVE","effective_from":"2026-03-27T00:00:00.000Z","updated_at":"2026-03-27T00:00:00.000Z","updated_by":"CDISC Standards Lead","change_reason":"CDISC SDTM release"},{"study_id":"GLOBAL","standard":"SDTM","domain":"APDM","name":"SEX","label":"Sex","type":"Char","length":200,"format":"","role":"RECORD QUALIFIER","origin":"CRF","derivation":"","codelist":"SEX","key_seq":null,"core":"Permissible","version":"1.0","status":"ACTIVE","effective_from":"2026-03-27T00:00:00.000Z","updated_at":"2026-03-27T00:00:00.000Z","updated_by":"CDISC Standards Lead","change_reason":"CDISC SDTM release"},{"study_id":"GLOBAL","standard":"SDTM","domain":"APDM","name":"RACE","label":"Race","type":"Char","length":200,"format":"","role":"RECORD QUALIFIER","origin":"CRF","derivation":"","codelist":"RACE","key_seq":null,"core":"Permissible","version":"1.0","status":"ACTIVE","effective_from":"2026-03-27T00:00:00.000Z","updated_at":"2026-03-27T00:00:00.000Z","updated_by":"CDISC Standards Lead","change_reason":"CDISC SDTM release"},{"study_id":"GLOBAL","standard":"SDTM","domain":"APDM","name":"ETHNIC","label":"Ethnicity","type":"Char","length":200,"format":"","role":"RECORD QUALIFIER","origin":"CRF","derivation":"","codelist":"ETHNIC","key_seq":null,"core":"Permissible","version":"1.0","status":"ACTIVE","effective_from":"2026-03-27T00:00:00.000Z","updated_at":"2026-03-27T00:00:00.000Z","updated_by":"CDISC Standards Lead","change_reason":"CDISC SDTM release"},{"study_id":"GLOBAL","standard":"SDTM","domain":"APDM","name":"ARMCD","label":"Planned Arm Code","type":"Char","length":200,"format":"","role":"RECORD QUALIFIER","origin":"CRF","derivation":"","codelist":null,"key_seq":null,"core":"Prohibited","version":"1.0","status":"ACTIVE","effective_from":"2026-03-27T00:00:00.000Z","updated_at":"2026-03-27T00:00:00.000Z","updated_by":"CDISC Standards Lead","change_reason":"CDISC SDTM release"},{"study_id":"GLOBAL","standard":"SDTM","domain":"APDM","name":"SPECIES","label":"Species","type":"Char","length":200,"format":"","role":"RECORD QUALIFIER","origin":"CRF","derivation":"","codelist":null,"key_seq":null,"core":"SEND Only","version":"1.0","status":"ACTIVE","effective_from":"2026-03-27T00:00:00.000Z","updated_at":"2026-03-27T00:00:00.000Z","updated_by":"CDISC Standards Lead","change_reason":"CDISC SDTM release"},{"study_id":"GLOBAL","standard":"SDTM","domain":"APDM","name":"ARM","label":"Description of Planned Arm","type":"Char","length":200,"format":"","role":"SYNONYM QUALIFIER","origin":"CRF","derivation":"","codelist":null,"key_seq":null,"core":"Prohibited","version":"1.0","status":"ACTIVE","effective_from":"2026-03-27T00:00:00.000Z","updated_at":"2026-03-27T00:00:00.000Z","updated_by":"CDISC Standards Lead","change_reason":"CDISC SDTM release"},{"study_id":"GLOBAL","standard":"SDTM","domain":"APDM","name":"STRAIN","label":"Strain/Substrain","type":"Char","length":200,"format":"","role":"RECORD QUALIFIER","origin":"CRF","derivation":"","codelist":null,"key_seq":null,"core":"SEND Only","version":"1.0","status":"ACTIVE","effective_from":"2026-03-27T00:00:00.000Z","updated_at":"2026-03-27T00:00:00.000Z","updated_by":"CDISC Standards Lead","change_reason":"CDISC SDTM release"},{"study_id":"GLOBAL","standard":"SDTM","domain":"APDM","name":"ACTARMCD","label":"Actual Arm Code","type":"Char","length":200,"format":"","role":"RECORD QUALIFIER","origin":"CRF","derivation":"","codelist":null,"key_seq":null,"core":"Prohibited","version":"1.0","status":"ACTIVE","effective_from":"2026-03-27T00:00:00.000Z","updated_at":"2026-03-27T00:00:00.000Z","updated_by":"CDISC Standards Lead","change_reason":"CDISC SDTM release"},{"study_id":"GLOBAL","standard":"SDTM","domain":"APDM","name":"SBSTRAIN","label":"Strain/Substrain Details","type":"Char","length":200,"format":"","role":"VARIABLE QUALIFIER","origin":"CRF","derivation":"","codelist":null,"key_seq":null,"core":"SEND Only","version":"1.0","status":"ACTIVE","effective_from":"2026-03-27T00:00:00.000Z","updated_at":"2026-03-27T00:00:00.000Z","updated_by":"CDISC Standards Lead","change_reason":"CDISC SDTM release"},{"study_id":"GLOBAL","standard":"SDTM","domain":"APDM","name":"ACTARM","label":"Description of Actual Arm","type":"Char","length":200,"format":"","role":"SYNONYM QUALIFIER","origin":"CRF","derivation":"","codelist":null,"key_seq":null,"core":"Prohibited","version":"1.0","status":"ACTIVE","effective_from":"2026-03-27T00:00:00.000Z","updated_at":"2026-03-27T00:00:00.000Z","updated_by":"CDISC Standards Lead","change_reason":"CDISC SDTM release"},{"study_id":"GLOBAL","standard":"SDTM","domain":"APDM","name":"ARMNRS","label":"Reason Arm and/or Actual Arm is Null","type":"Char","length":200,"format":"","role":"RECORD QUALIFIER","origin":"CRF","derivation":"","codelist":"ARMNULRS","key_seq":null,"core":"Prohibited","version":"1.0","status":"ACTIVE","effective_from":"2026-03-27T00:00:00.000Z","updated_at":"2026-03-27T00:00:00.000Z","updated_by":"CDISC Standards Lead","change_reason":"CDISC SDTM release"},{"study_id":"GLOBAL","standard":"SDTM","domain":"APDM","name":"ACTARMUD","label":"Description of Unplanned Actual Arm","type":"Char","length":200,"format":"","role":"RECORD QUALIFIER","origin":"CRF","derivation":"","codelist":null,"key_seq":null,"core":"Prohibited","version":"1.0","status":"ACTIVE","effective_from":"2026-03-27T00:00:00.000Z","updated_at":"2026-03-27T00:00:00.000Z","updated_by":"CDISC Standards Lead","change_reason":"CDISC SDTM release"},{"study_id":"GLOBAL","standard":"SDTM","domain":"APDM","name":"COUNTRY","label":"Country","type":"Char","length":200,"format":"","role":"RECORD QUALIFIER","origin":"CRF","derivation":"","codelist":null,"key_seq":null,"core":"Permissible","version":"1.0","status":"ACTIVE","effective_from":"2026-03-27T00:00:00.000Z","updated_at":"2026-03-27T00:00:00.000Z","updated_by":"CDISC Standards Lead","change_reason":"CDISC SDTM release"},{"study_id":"GLOBAL","standard":"SDTM","domain":"APDM","name":"DMDTC","label":"Date/Time of Collection","type":"Char","length":200,"format":"","role":"TIMING","origin":"CRF","derivation":"","codelist":null,"key_seq":null,"core":"Permissible","version":"1.0","status":"ACTIVE","effective_from":"2026-03-27T00:00:00.000Z","updated_at":"2026-03-27T00:00:00.000Z","updated_by":"CDISC Standards Lead","change_reason":"CDISC SDTM release"},{"study_id":"GLOBAL","standard":"SDTM","domain":"APDM","name":"SETCD","label":"Set Code","type":"Char","length":200,"format":"","role":"RECORD QUALIFIER","origin":"CRF","derivation":"","codelist":null,"key_seq":null,"core":"Model Permissible","version":"1.0","status":"ACTIVE","effective_from":"2026-03-27T00:00:00.000Z","updated_at":"2026-03-27T00:00:00.000Z","updated_by":"CDISC Standards Lead","change_reason":"CDISC SDTM release"},{"study_id":"GLOBAL","standard":"SDTM","domain":"APDM","name":"DMXFN","label":"External File Path","type":"Char","length":200,"format":"","role":"RECORD QUALIFIER","origin":"CRF","derivation":"","codelist":null,"key_seq":null,"core":"Model Permissible","version":"1.0","status":"ACTIVE","effective_from":"2026-03-27T00:00:00.000Z","updated_at":"2026-03-27T00:00:00.000Z","updated_by":"CDISC Standards Lead","change_reason":"CDISC SDTM release"},{"study_id":"GLOBAL","standard":"SDTM","domain":"APDM","name":"VISITNUM","label":"Visit Number","type":"Num","length":8,"format":"8.","role":"TIMING","origin":"CRF","derivation":"","codelist":null,"key_seq":null,"core":"Model Permissible","version":"1.0","status":"ACTIVE","effective_from":"2026-03-27T00:00:00.000Z","updated_at":"2026-03-27T00:00:00.000Z","updated_by":"CDISC Standards Lead","change_reason":"CDISC SDTM release"},{"study_id":"GLOBAL","standard":"SDTM","domain":"APDM","name":"VISIT","label":"Visit Name","type":"Char","length":200,"format":"","role":"TIMING","origin":"CRF","derivation":"","codelist":null,"key_seq":null,"core":"Model Permissible","version":"1.0","status":"ACTIVE","effective_from":"2026-03-27T00:00:00.000Z","updated_at":"2026-03-27T00:00:00.000Z","updated_by":"CDISC Standards Lead","change_reason":"CDISC SDTM release"},{"study_id":"GLOBAL","standard":"SDTM","domain":"APDM","name":"VISITDY","label":"Planned Study Day of Visit","type":"Num","length":8,"format":"8.","role":"TIMING","origin":"CRF","derivation":"","codelist":null,"key_seq":null,"core":"Model Permissible","version":"1.0","status":"ACTIVE","effective_from":"2026-03-27T00:00:00.000Z","updated_at":"2026-03-27T00:00:00.000Z","updated_by":"CDISC Standards Lead","change_reason":"CDISC SDTM release"},{"study_id":"GLOBAL","standard":"SDTM","domain":"APDM","name":"DMDY","label":"Study Day of Collection","type":"Num","length":8,"format":"8.","role":"TIMING","origin":"CRF","derivation":"","codelist":null,"key_seq":null,"core":"Permissible","version":"1.0","status":"ACTIVE","effective_from":"2026-03-27T00:00:00.000Z","updated_at":"2026-03-27T00:00:00.000Z","updated_by":"CDISC Standards Lead","change_reason":"CDISC SDTM release"},{"study_id":"GLOBAL","standard":"SDTM","domain":"CO","name":"STUDYID","label":"Study Identifier","type":"Char","length":200,"format":"","role":"IDENTIFIER","origin":"ASSIGNED","derivation":"","codelist":null,"key_seq":1,"core":"Required","version":"1.0","status":"ACTIVE","effective_from":"2026-03-27T00:00:00.000Z","updated_at":"2026-03-27T00:00:00.000Z","updated_by":"CDISC Standards Lead","change_reason":"CDISC SDTM release"},{"study_id":"GLOBAL","standard":"SDTM","domain":"CO","name":"DOMAIN","label":"Domain Abbreviation","type":"Char","length":200,"format":"","role":"IDENTIFIER","origin":"ASSIGNED","derivation":"","codelist":null,"key_seq":null,"core":"Required","version":"1.0","status":"ACTIVE","effective_from":"2026-03-27T00:00:00.000Z","updated_at":"2026-03-27T00:00:00.000Z","updated_by":"CDISC Standards Lead","change_reason":"CDISC SDTM release"},{"study_id":"GLOBAL","standard":"SDTM","domain":"CO","name":"RDOMAIN","label":"Related Domain Abbreviation","type":"Char","length":200,"format":"","role":"RECORD QUALIFIER","origin":"CRF","derivation":"","codelist":null,"key_seq":2,"core":"Permissible","version":"1.0","status":"ACTIVE","effective_from":"2026-03-27T00:00:00.000Z","updated_at":"2026-03-27T00:00:00.000Z","updated_by":"CDISC Standards Lead","change_reason":"CDISC SDTM release"},{"study_id":"GLOBAL","standard":"SDTM","domain":"CO","name":"USUBJID","label":"Unique Subject Identifier","type":"Char","length":200,"format":"","role":"IDENTIFIER","origin":"CRF","derivation":"","codelist":null,"key_seq":3,"core":"Expected","version":"1.0","status":"ACTIVE","effective_from":"2026-03-27T00:00:00.000Z","updated_at":"2026-03-27T00:00:00.000Z","updated_by":"CDISC Standards Lead","change_reason":"CDISC SDTM release"},{"study_id":"GLOBAL","standard":"SDTM","domain":"CO","name":"POOLID","label":"Pool Identifier","type":"Char","length":200,"format":"","role":"IDENTIFIER","origin":"CRF","derivation":"","codelist":null,"key_seq":null,"core":"Model Permissible","version":"1.0","status":"ACTIVE","effective_from":"2026-03-27T00:00:00.000Z","updated_at":"2026-03-27T00:00:00.000Z","updated_by":"CDISC Standards Lead","change_reason":"CDISC SDTM release"},{"study_id":"GLOBAL","standard":"SDTM","domain":"CO","name":"SPDEVID","label":"Sponsor Device Identifier","type":"Char","length":200,"format":"","role":"IDENTIFIER","origin":"CRF","derivation":"","codelist":null,"key_seq":null,"core":"Model Permissible","version":"1.0","status":"ACTIVE","effective_from":"2026-03-27T00:00:00.000Z","updated_at":"2026-03-27T00:00:00.000Z","updated_by":"CDISC Standards Lead","change_reason":"CDISC SDTM release"},{"study_id":"GLOBAL","standard":"SDTM","domain":"CO","name":"COSEQ","label":"Sequence Number","type":"Num","length":8,"format":"8.","role":"IDENTIFIER","origin":"DERIVED","derivation":"","codelist":null,"key_seq":4,"core":"Required","version":"1.0","status":"ACTIVE","effective_from":"2026-03-27T00:00:00.000Z","updated_at":"2026-03-27T00:00:00.000Z","updated_by":"CDISC Standards Lead","change_reason":"CDISC SDTM release"},{"study_id":"GLOBAL","standard":"SDTM","domain":"CO","name":"COGRPID","label":"Group ID","type":"Char","length":200,"format":"","role":"IDENTIFIER","origin":"CRF","derivation":"","codelist":null,"key_seq":null,"core":"Not Recommended","version":"1.0","status":"ACTIVE","effective_from":"2026-03-27T00:00:00.000Z","updated_at":"2026-03-27T00:00:00.000Z","updated_by":"CDISC Standards Lead","change_reason":"CDISC SDTM release"},{"study_id":"GLOBAL","standard":"SDTM","domain":"CO","name":"COREFID","label":"Reference ID","type":"Char","length":200,"format":"","role":"IDENTIFIER","origin":"CRF","derivation":"","codelist":null,"key_seq":null,"core":"Not Recommended","version":"1.0","status":"ACTIVE","effective_from":"2026-03-27T00:00:00.000Z","updated_at":"2026-03-27T00:00:00.000Z","updated_by":"CDISC Standards Lead","change_reason":"CDISC SDTM release"},{"study_id":"GLOBAL","standard":"SDTM","domain":"CO","name":"CORECID","label":"Invariant Record Identifier","type":"Char","length":200,"format":"","role":"IDENTIFIER","origin":"CRF","derivation":"","codelist":null,"key_seq":null,"core":"Model Permissible","version":"1.0","status":"ACTIVE","effective_from":"2026-03-27T00:00:00.000Z","updated_at":"2026-03-27T00:00:00.000Z","updated_by":"CDISC Standards Lead","change_reason":"CDISC SDTM release"},{"study_id":"GLOBAL","standard":"SDTM","domain":"CO","name":"COSPID","label":"Sponsor-Defined Identifier","type":"Char","length":200,"format":"","role":"IDENTIFIER","origin":"CRF","derivation":"","codelist":null,"key_seq":null,"core":"Not Recommended","version":"1.0","status":"ACTIVE","effective_from":"2026-03-27T00:00:00.000Z","updated_at":"2026-03-27T00:00:00.000Z","updated_by":"CDISC Standards Lead","change_reason":"CDISC SDTM release"},{"study_id":"GLOBAL","standard":"SDTM","domain":"CO","name":"COLNKID","label":"Link ID","type":"Char","length":200,"format":"","role":"IDENTIFIER","origin":"CRF","derivation":"","codelist":null,"key_seq":null,"core":"Model Permissible","version":"1.0","status":"ACTIVE","effective_from":"2026-03-27T00:00:00.000Z","updated_at":"2026-03-27T00:00:00.000Z","updated_by":"CDISC Standards Lead","change_reason":"CDISC SDTM release"},{"study_id":"GLOBAL","standard":"SDTM","domain":"CO","name":"COLNKGRP","label":"Link Group ID","type":"Char","length":200,"format":"","role":"IDENTIFIER","origin":"CRF","derivation":"","codelist":null,"key_seq":null,"core":"Model Permissible","version":"1.0","status":"ACTIVE","effective_from":"2026-03-27T00:00:00.000Z","updated_at":"2026-03-27T00:00:00.000Z","updated_by":"CDISC Standards Lead","change_reason":"CDISC SDTM release"},{"study_id":"GLOBAL","standard":"SDTM","domain":"CO","name":"IDVAR","label":"Identifying Variable","type":"Char","length":200,"format":"","role":"RECORD QUALIFIER","origin":"CRF","derivation":"","codelist":null,"key_seq":null,"core":"Permissible","version":"1.0","status":"ACTIVE","effective_from":"2026-03-27T00:00:00.000Z","updated_at":"2026-03-27T00:00:00.000Z","updated_by":"CDISC Standards Lead","change_reason":"CDISC SDTM release"},{"study_id":"GLOBAL","standard":"SDTM","domain":"CO","name":"IDVARVAL","label":"Identifying Variable Value","type":"Char","length":200,"format":"","role":"RECORD QUALIFIER","origin":"CRF","derivation":"","codelist":null,"key_seq":null,"core":"Permissible","version":"1.0","status":"ACTIVE","effective_from":"2026-03-27T00:00:00.000Z","updated_at":"2026-03-27T00:00:00.000Z","updated_by":"CDISC Standards Lead","change_reason":"CDISC SDTM release"},{"study_id":"GLOBAL","standard":"SDTM","domain":"CO","name":"COREF","label":"Comment Reference","type":"Char","length":200,"format":"","role":"RECORD QUALIFIER","origin":"CRF","derivation":"","codelist":null,"key_seq":null,"core":"Permissible","version":"1.0","status":"ACTIVE","effective_from":"2026-03-27T00:00:00.000Z","updated_at":"2026-03-27T00:00:00.000Z","updated_by":"CDISC Standards Lead","change_reason":"CDISC SDTM release"},{"study_id":"GLOBAL","standard":"SDTM","domain":"CO","name":"COVAL","label":"Comment","type":"Char","length":200,"format":"","role":"TOPIC","origin":"CRF","derivation":"","codelist":null,"key_seq":null,"core":"Required","version":"1.0","status":"ACTIVE","effective_from":"2026-03-27T00:00:00.000Z","updated_at":"2026-03-27T00:00:00.000Z","updated_by":"CDISC Standards Lead","change_reason":"CDISC SDTM release"},{"study_id":"GLOBAL","standard":"SDTM","domain":"CO","name":"COVAL1","label":"Comment","type":"Char","length":200,"format":"","role":"TOPIC","origin":"CRF","derivation":"","codelist":null,"key_seq":null,"core":"Model Permissible","version":"1.0","status":"ACTIVE","effective_from":"2026-03-27T00:00:00.000Z","updated_at":"2026-03-27T00:00:00.000Z","updated_by":"CDISC Standards Lead","change_reason":"CDISC SDTM release"},{"study_id":"GLOBAL","standard":"SDTM","domain":"CO","name":"COVAL2","label":"Comment","type":"Char","length":200,"format":"","role":"TOPIC","origin":"CRF","derivation":"","codelist":null,"key_seq":null,"core":"Model Permissible","version":"1.0","status":"ACTIVE","effective_from":"2026-03-27T00:00:00.000Z","updated_at":"2026-03-27T00:00:00.000Z","updated_by":"CDISC Standards Lead","change_reason":"CDISC SDTM release"},{"study_id":"GLOBAL","standard":"SDTM","domain":"CO","name":"COVAL3","label":"Comment","type":"Char","length":200,"format":"","role":"TOPIC","origin":"CRF","derivation":"","codelist":null,"key_seq":null,"core":"Model Permissible","version":"1.0","status":"ACTIVE","effective_from":"2026-03-27T00:00:00.000Z","updated_at":"2026-03-27T00:00:00.000Z","updated_by":"CDISC Standards Lead","change_reason":"CDISC SDTM release"},{"study_id":"GLOBAL","standard":"SDTM","domain":"CO","name":"COVAL4","label":"Comment","type":"Char","length":200,"format":"","role":"TOPIC","origin":"CRF","derivation":"","codelist":null,"key_seq":null,"core":"Model Permissible","version":"1.0","status":"ACTIVE","effective_from":"2026-03-27T00:00:00.000Z","updated_at":"2026-03-27T00:00:00.000Z","updated_by":"CDISC Standards Lead","change_reason":"CDISC SDTM release"},{"study_id":"GLOBAL","standard":"SDTM","domain":"CO","name":"COVAL5","label":"Comment","type":"Char","length":200,"format":"","role":"TOPIC","origin":"CRF","derivation":"","codelist":null,"key_seq":null,"core":"Model Permissible","version":"1.0","status":"ACTIVE","effective_from":"2026-03-27T00:00:00.000Z","updated_at":"2026-03-27T00:00:00.000Z","updated_by":"CDISC Standards Lead","change_reason":"CDISC SDTM release"},{"study_id":"GLOBAL","standard":"SDTM","domain":"CO","name":"COVAL6","label":"Comment","type":"Char","length":200,"format":"","role":"TOPIC","origin":"CRF","derivation":"","codelist":null,"key_seq":null,"core":"Model Permissible","version":"1.0","status":"ACTIVE","effective_from":"2026-03-27T00:00:00.000Z","updated_at":"2026-03-27T00:00:00.000Z","updated_by":"CDISC Standards Lead","change_reason":"CDISC SDTM release"},{"study_id":"GLOBAL","standard":"SDTM","domain":"CO","name":"COVAL7","label":"Comment","type":"Char","length":200,"format":"","role":"TOPIC","origin":"CRF","derivation":"","codelist":null,"key_seq":null,"core":"Model Permissible","version":"1.0","status":"ACTIVE","effective_from":"2026-03-27T00:00:00.000Z","updated_at":"2026-03-27T00:00:00.000Z","updated_by":"CDISC Standards Lead","change_reason":"CDISC SDTM release"},{"study_id":"GLOBAL","standard":"SDTM","domain":"CO","name":"COVAL8","label":"Comment","type":"Char","length":200,"format":"","role":"TOPIC","origin":"CRF","derivation":"","codelist":null,"key_seq":null,"core":"Model Permissible","version":"1.0","status":"ACTIVE","effective_from":"2026-03-27T00:00:00.000Z","updated_at":"2026-03-27T00:00:00.000Z","updated_by":"CDISC Standards Lead","change_reason":"CDISC SDTM release"},{"study_id":"GLOBAL","standard":"SDTM","domain":"CO","name":"COVAL9","label":"Comment","type":"Char","length":200,"format":"","role":"TOPIC","origin":"CRF","derivation":"","codelist":null,"key_seq":null,"core":"Model Permissible","version":"1.0","status":"ACTIVE","effective_from":"2026-03-27T00:00:00.000Z","updated_at":"2026-03-27T00:00:00.000Z","updated_by":"CDISC Standards Lead","change_reason":"CDISC SDTM release"},{"study_id":"GLOBAL","standard":"SDTM","domain":"CO","name":"COVAL10","label":"Comment","type":"Char","length":200,"format":"","role":"TOPIC","origin":"CRF","derivation":"","codelist":null,"key_seq":null,"core":"Model Permissible","version":"1.0","status":"ACTIVE","effective_from":"2026-03-27T00:00:00.000Z","updated_at":"2026-03-27T00:00:00.000Z","updated_by":"CDISC Standards Lead","change_reason":"CDISC SDTM release"},{"study_id":"GLOBAL","standard":"SDTM","domain":"CO","name":"COEVAL","label":"Evaluator","type":"Char","length":200,"format":"","role":"RECORD QUALIFIER","origin":"CRF","derivation":"","codelist":"EVAL","key_seq":null,"core":"Permissible","version":"1.0","status":"ACTIVE","effective_from":"2026-03-27T00:00:00.000Z","updated_at":"2026-03-27T00:00:00.000Z","updated_by":"CDISC Standards Lead","change_reason":"CDISC SDTM release"},{"study_id":"GLOBAL","standard":"SDTM","domain":"CO","name":"COEVALID","label":"Evaluator Identifier","type":"Char","length":200,"format":"","role":"RECORD QUALIFIER","origin":"CRF","derivation":"","codelist":"MEDEVAL","key_seq":null,"core":"Permissible","version":"1.0","status":"ACTIVE","effective_from":"2026-03-27T00:00:00.000Z","updated_at":"2026-03-27T00:00:00.000Z","updated_by":"CDISC Standards Lead","change_reason":"CDISC SDTM release"},{"study_id":"GLOBAL","standard":"SDTM","domain":"CO","name":"VISITNUM","label":"Visit Number","type":"Num","length":8,"format":"8.","role":"TIMING","origin":"CRF","derivation":"","codelist":null,"key_seq":null,"core":"Model Permissible","version":"1.0","status":"ACTIVE","effective_from":"2026-03-27T00:00:00.000Z","updated_at":"2026-03-27T00:00:00.000Z","updated_by":"CDISC Standards Lead","change_reason":"CDISC SDTM release"},{"study_id":"GLOBAL","standard":"SDTM","domain":"CO","name":"VISIT","label":"Visit Name","type":"Char","length":200,"format":"","role":"TIMING","origin":"CRF","derivation":"","codelist":null,"key_seq":null,"core":"Model Permissible","version":"1.0","status":"ACTIVE","effective_from":"2026-03-27T00:00:00.000Z","updated_at":"2026-03-27T00:00:00.000Z","updated_by":"CDISC Standards Lead","change_reason":"CDISC SDTM release"},{"study_id":"GLOBAL","standard":"SDTM","domain":"CO","name":"VISITDY","label":"Planned Study Day of Visit","type":"Num","length":8,"format":"8.","role":"TIMING","origin":"CRF","derivation":"","codelist":null,"key_seq":null,"core":"Model Permissible","version":"1.0","status":"ACTIVE","effective_from":"2026-03-27T00:00:00.000Z","updated_at":"2026-03-27T00:00:00.000Z","updated_by":"CDISC Standards Lead","change_reason":"CDISC SDTM release"},{"study_id":"GLOBAL","standard":"SDTM","domain":"CO","name":"TAETORD","label":"Planned Order of Element within Arm","type":"Num","length":8,"format":"8.","role":"TIMING","origin":"CRF","derivation":"","codelist":null,"key_seq":null,"core":"Not Recommended","version":"1.0","status":"ACTIVE","effective_from":"2026-03-27T00:00:00.000Z","updated_at":"2026-03-27T00:00:00.000Z","updated_by":"CDISC Standards Lead","change_reason":"CDISC SDTM release"},{"study_id":"GLOBAL","standard":"SDTM","domain":"CO","name":"CODTC","label":"Date/Time of Comment","type":"Char","length":200,"format":"","role":"TIMING","origin":"CRF","derivation":"","codelist":null,"key_seq":null,"core":"Permissible","version":"1.0","status":"ACTIVE","effective_from":"2026-03-27T00:00:00.000Z","updated_at":"2026-03-27T00:00:00.000Z","updated_by":"CDISC Standards Lead","change_reason":"CDISC SDTM release"},{"study_id":"GLOBAL","standard":"SDTM","domain":"CO","name":"CODY","label":"Study Day of Comment","type":"Num","length":8,"format":"8.","role":"TIMING","origin":"CRF","derivation":"","codelist":null,"key_seq":null,"core":"Permissible","version":"1.0","status":"ACTIVE","effective_from":"2026-03-27T00:00:00.000Z","updated_at":"2026-03-27T00:00:00.000Z","updated_by":"CDISC Standards Lead","change_reason":"CDISC SDTM release"},{"study_id":"GLOBAL","standard":"SDTM","domain":"CO","name":"COTPT","label":"Planned Time Point Name","type":"Char","length":200,"format":"","role":"TIMING","origin":"CRF","derivation":"","codelist":null,"key_seq":null,"core":"Not Recommended","version":"1.0","status":"ACTIVE","effective_from":"2026-03-27T00:00:00.000Z","updated_at":"2026-03-27T00:00:00.000Z","updated_by":"CDISC Standards Lead","change_reason":"CDISC SDTM release"},{"study_id":"GLOBAL","standard":"SDTM","domain":"CO","name":"COTPTNUM","label":"Planned Time Point Number","type":"Num","length":8,"format":"8.","role":"TIMING","origin":"CRF","derivation":"","codelist":null,"key_seq":null,"core":"Not Recommended","version":"1.0","status":"ACTIVE","effective_from":"2026-03-27T00:00:00.000Z","updated_at":"2026-03-27T00:00:00.000Z","updated_by":"CDISC Standards Lead","change_reason":"CDISC SDTM release"},{"study_id":"GLOBAL","standard":"SDTM","domain":"CO","name":"COELTM","label":"Planned Elapsed Time from Time Point Ref","type":"Char","length":200,"format":"","role":"TIMING","origin":"CRF","derivation":"","codelist":null,"key_seq":null,"core":"Not Recommended","version":"1.0","status":"ACTIVE","effective_from":"2026-03-27T00:00:00.000Z","updated_at":"2026-03-27T00:00:00.000Z","updated_by":"CDISC Standards Lead","change_reason":"CDISC SDTM release"},{"study_id":"GLOBAL","standard":"SDTM","domain":"CO","name":"COTPTREF","label":"Time Point Reference","type":"Char","length":200,"format":"","role":"TIMING","origin":"CRF","derivation":"","codelist":null,"key_seq":null,"core":"Not Recommended","version":"1.0","status":"ACTIVE","effective_from":"2026-03-27T00:00:00.000Z","updated_at":"2026-03-27T00:00:00.000Z","updated_by":"CDISC Standards Lead","change_reason":"CDISC SDTM release"},{"study_id":"GLOBAL","standard":"SDTM","domain":"CO","name":"CORFTDTC","label":"Date/Time of Reference Time Point","type":"Char","length":200,"format":"","role":"TIMING","origin":"CRF","derivation":"","codelist":null,"key_seq":null,"core":"Not Recommended","version":"1.0","status":"ACTIVE","effective_from":"2026-03-27T00:00:00.000Z","updated_at":"2026-03-27T00:00:00.000Z","updated_by":"CDISC Standards Lead","change_reason":"CDISC SDTM release"},{"study_id":"GLOBAL","standard":"SDTM","domain":"DM","name":"STUDYID","label":"Study Identifier","type":"Char","length":200,"format":"","role":"IDENTIFIER","origin":"ASSIGNED","derivation":"","codelist":null,"key_seq":1,"core":"Required","version":"1.0","status":"ACTIVE","effective_from":"2026-03-27T00:00:00.000Z","updated_at":"2026-03-27T00:00:00.000Z","updated_by":"CDISC Standards Lead","change_reason":"CDISC SDTM release"},{"study_id":"GLOBAL","standard":"SDTM","domain":"DM","name":"DOMAIN","label":"Domain Abbreviation","type":"Char","length":200,"format":"","role":"IDENTIFIER","origin":"ASSIGNED","derivation":"","codelist":null,"key_seq":null,"core":"Required","version":"1.0","status":"ACTIVE","effective_from":"2026-03-27T00:00:00.000Z","updated_at":"2026-03-27T00:00:00.000Z","updated_by":"CDISC Standards Lead","change_reason":"CDISC SDTM release"},{"study_id":"GLOBAL","standard":"SDTM","domain":"DM","name":"USUBJID","label":"Unique Subject Identifier","type":"Char","length":200,"format":"","role":"IDENTIFIER","origin":"CRF","derivation":"","codelist":null,"key_seq":2,"core":"Required","version":"1.0","status":"ACTIVE","effective_from":"2026-03-27T00:00:00.000Z","updated_at":"2026-03-27T00:00:00.000Z","updated_by":"CDISC Standards Lead","change_reason":"CDISC SDTM release"},{"study_id":"GLOBAL","standard":"SDTM","domain":"DM","name":"SUBJID","label":"Subject Identifier for the Study","type":"Char","length":200,"format":"","role":"TOPIC","origin":"CRF","derivation":"","codelist":null,"key_seq":null,"core":"Required","version":"1.0","status":"ACTIVE","effective_from":"2026-03-27T00:00:00.000Z","updated_at":"2026-03-27T00:00:00.000Z","updated_by":"CDISC Standards Lead","change_reason":"CDISC SDTM release"},{"study_id":"GLOBAL","standard":"SDTM","domain":"DM","name":"RFSTDTC","label":"Subject Reference Start Date/Time","type":"Char","length":200,"format":"","role":"RECORD QUALIFIER","origin":"DERIVED","derivation":"","codelist":null,"key_seq":null,"core":"Expected","version":"1.0","status":"ACTIVE","effective_from":"2026-03-27T00:00:00.000Z","updated_at":"2026-03-27T00:00:00.000Z","updated_by":"CDISC Standards Lead","change_reason":"CDISC SDTM release"},{"study_id":"GLOBAL","standard":"SDTM","domain":"DM","name":"RFENDTC","label":"Subject Reference End Date/Time","type":"Char","length":200,"format":"","role":"RECORD QUALIFIER","origin":"DERIVED","derivation":"","codelist":null,"key_seq":null,"core":"Expected","version":"1.0","status":"ACTIVE","effective_from":"2026-03-27T00:00:00.000Z","updated_at":"2026-03-27T00:00:00.000Z","updated_by":"CDISC Standards Lead","change_reason":"CDISC SDTM release"},{"study_id":"GLOBAL","standard":"SDTM","domain":"DM","name":"RFXSTDTC","label":"Date/Time of First Study Treatment","type":"Char","length":200,"format":"","role":"RECORD QUALIFIER","origin":"DERIVED","derivation":"","codelist":null,"key_seq":null,"core":"Expected","version":"1.0","status":"ACTIVE","effective_from":"2026-03-27T00:00:00.000Z","updated_at":"2026-03-27T00:00:00.000Z","updated_by":"CDISC Standards Lead","change_reason":"CDISC SDTM release"},{"study_id":"GLOBAL","standard":"SDTM","domain":"DM","name":"RFXENDTC","label":"Date/Time of Last Study Treatment","type":"Char","length":200,"format":"","role":"RECORD QUALIFIER","origin":"DERIVED","derivation":"","codelist":null,"key_seq":null,"core":"Expected","version":"1.0","status":"ACTIVE","effective_from":"2026-03-27T00:00:00.000Z","updated_at":"2026-03-27T00:00:00.000Z","updated_by":"CDISC Standards Lead","change_reason":"CDISC SDTM release"},{"study_id":"GLOBAL","standard":"SDTM","domain":"DM","name":"RFCSTDTC","label":"Date/Time of First Challenge Agent Admin","type":"Char","length":200,"format":"","role":"RECORD QUALIFIER","origin":"DERIVED","derivation":"","codelist":null,"key_seq":null,"core":"Permissible","version":"1.0","status":"ACTIVE","effective_from":"2026-03-27T00:00:00.000Z","updated_at":"2026-03-27T00:00:00.000Z","updated_by":"CDISC Standards Lead","change_reason":"CDISC SDTM release"},{"study_id":"GLOBAL","standard":"SDTM","domain":"DM","name":"RFCENDTC","label":"Date/Time of Last Challenge Agent Admin","type":"Char","length":200,"format":"","role":"RECORD QUALIFIER","origin":"DERIVED","derivation":"","codelist":null,"key_seq":null,"core":"Permissible","version":"1.0","status":"ACTIVE","effective_from":"2026-03-27T00:00:00.000Z","updated_at":"2026-03-27T00:00:00.000Z","updated_by":"CDISC Standards Lead","change_reason":"CDISC SDTM release"},{"study_id":"GLOBAL","standard":"SDTM","domain":"DM","name":"RFICDTC","label":"Date/Time of Informed Consent","type":"Char","length":200,"format":"","role":"RECORD QUALIFIER","origin":"DERIVED","derivation":"","codelist":null,"key_seq":null,"core":"Expected","version":"1.0","status":"ACTIVE","effective_from":"2026-03-27T00:00:00.000Z","updated_at":"2026-03-27T00:00:00.000Z","updated_by":"CDISC Standards Lead","change_reason":"CDISC SDTM release"},{"study_id":"GLOBAL","standard":"SDTM","domain":"DM","name":"RFPENDTC","label":"Date/Time of End of Participation","type":"Char","length":200,"format":"","role":"RECORD QUALIFIER","origin":"DERIVED","derivation":"","codelist":null,"key_seq":null,"core":"Expected","version":"1.0","status":"ACTIVE","effective_from":"2026-03-27T00:00:00.000Z","updated_at":"2026-03-27T00:00:00.000Z","updated_by":"CDISC Standards Lead","change_reason":"CDISC SDTM release"},{"study_id":"GLOBAL","standard":"SDTM","domain":"DM","name":"DTHDTC","label":"Date/Time of Death","type":"Char","length":200,"format":"","role":"RECORD QUALIFIER","origin":"CRF","derivation":"","codelist":null,"key_seq":null,"core":"Expected","version":"1.0","status":"ACTIVE","effective_from":"2026-03-27T00:00:00.000Z","updated_at":"2026-03-27T00:00:00.000Z","updated_by":"CDISC Standards Lead","change_reason":"CDISC SDTM release"},{"study_id":"GLOBAL","standard":"SDTM","domain":"DM","name":"DTHFL","label":"Subject Death Flag","type":"Char","length":200,"format":"","role":"RECORD QUALIFIER","origin":"CRF","derivation":"","codelist":"Y","key_seq":null,"core":"Expected","version":"1.0","status":"ACTIVE","effective_from":"2026-03-27T00:00:00.000Z","updated_at":"2026-03-27T00:00:00.000Z","updated_by":"CDISC Standards Lead","change_reason":"CDISC SDTM release"},{"study_id":"GLOBAL","standard":"SDTM","domain":"DM","name":"SITEID","label":"Study Site Identifier","type":"Char","length":200,"format":"","role":"RECORD QUALIFIER","origin":"CRF","derivation":"","codelist":null,"key_seq":null,"core":"Required","version":"1.0","status":"ACTIVE","effective_from":"2026-03-27T00:00:00.000Z","updated_at":"2026-03-27T00:00:00.000Z","updated_by":"CDISC Standards Lead","change_reason":"CDISC SDTM release"},{"study_id":"GLOBAL","standard":"SDTM","domain":"DM","name":"INVID","label":"Investigator Identifier","type":"Char","length":200,"format":"","role":"RECORD QUALIFIER","origin":"CRF","derivation":"","codelist":null,"key_seq":null,"core":"Permissible","version":"1.0","status":"ACTIVE","effective_from":"2026-03-27T00:00:00.000Z","updated_at":"2026-03-27T00:00:00.000Z","updated_by":"CDISC Standards Lead","change_reason":"CDISC SDTM release"},{"study_id":"GLOBAL","standard":"SDTM","domain":"DM","name":"INVNAM","label":"Investigator Name","type":"Char","length":200,"format":"","role":"SYNONYM QUALIFIER","origin":"CRF","derivation":"","codelist":null,"key_seq":null,"core":"Permissible","version":"1.0","status":"ACTIVE","effective_from":"2026-03-27T00:00:00.000Z","updated_at":"2026-03-27T00:00:00.000Z","updated_by":"CDISC Standards Lead","change_reason":"CDISC SDTM release"},{"study_id":"GLOBAL","standard":"SDTM","domain":"DM","name":"BRTHDTC","label":"Date/Time of Birth","type":"Char","length":200,"format":"","role":"RECORD QUALIFIER","origin":"CRF","derivation":"","codelist":null,"key_seq":null,"core":"Permissible","version":"1.0","status":"ACTIVE","effective_from":"2026-03-27T00:00:00.000Z","updated_at":"2026-03-27T00:00:00.000Z","updated_by":"CDISC Standards Lead","change_reason":"CDISC SDTM release"},{"study_id":"GLOBAL","standard":"SDTM","domain":"DM","name":"AGE","label":"Age","type":"Num","length":8,"format":"8.","role":"RECORD QUALIFIER","origin":"CRF","derivation":"","codelist":null,"key_seq":null,"core":"Expected","version":"1.0","status":"ACTIVE","effective_from":"2026-03-27T00:00:00.000Z","updated_at":"2026-03-27T00:00:00.000Z","updated_by":"CDISC Standards Lead","change_reason":"CDISC SDTM release"},{"study_id":"GLOBAL","standard":"SDTM","domain":"DM","name":"AGETXT","label":"Age Range","type":"Char","length":200,"format":"","role":"RECORD QUALIFIER","origin":"CRF","derivation":"","codelist":null,"key_seq":null,"core":"SEND Only","version":"1.0","status":"ACTIVE","effective_from":"2026-03-27T00:00:00.000Z","updated_at":"2026-03-27T00:00:00.000Z","updated_by":"CDISC Standards Lead","change_reason":"CDISC SDTM release"},{"study_id":"GLOBAL","standard":"SDTM","domain":"DM","name":"AGEU","label":"Age Units","type":"Char","length":200,"format":"","role":"VARIABLE QUALIFIER","origin":"CRF","derivation":"","codelist":"AGEU","key_seq":null,"core":"Expected","version":"1.0","status":"ACTIVE","effective_from":"2026-03-27T00:00:00.000Z","updated_at":"2026-03-27T00:00:00.000Z","updated_by":"CDISC Standards Lead","change_reason":"CDISC SDTM release"},{"study_id":"GLOBAL","standard":"SDTM","domain":"DM","name":"SEX","label":"Sex","type":"Char","length":200,"format":"","role":"RECORD QUALIFIER","origin":"CRF","derivation":"","codelist":"SEX","key_seq":null,"core":"Required","version":"1.0","status":"ACTIVE","effective_from":"2026-03-27T00:00:00.000Z","updated_at":"2026-03-27T00:00:00.000Z","updated_by":"CDISC Standards Lead","change_reason":"CDISC SDTM release"},{"study_id":"GLOBAL","standard":"SDTM","domain":"DM","name":"RACE","label":"Race","type":"Char","length":200,"format":"","role":"RECORD QUALIFIER","origin":"CRF","derivation":"","codelist":"RACE","key_seq":null,"core":"Expected","version":"1.0","status":"ACTIVE","effective_from":"2026-03-27T00:00:00.000Z","updated_at":"2026-03-27T00:00:00.000Z","updated_by":"CDISC Standards Lead","change_reason":"CDISC SDTM release"},{"study_id":"GLOBAL","standard":"SDTM","domain":"DM","name":"ETHNIC","label":"Ethnicity","type":"Char","length":200,"format":"","role":"RECORD QUALIFIER","origin":"CRF","derivation":"","codelist":"ETHNIC","key_seq":null,"core":"Permissible","version":"1.0","status":"ACTIVE","effective_from":"2026-03-27T00:00:00.000Z","updated_at":"2026-03-27T00:00:00.000Z","updated_by":"CDISC Standards Lead","change_reason":"CDISC SDTM release"},{"study_id":"GLOBAL","standard":"SDTM","domain":"DM","name":"SPECIES","label":"Species","type":"Char","length":200,"format":"","role":"RECORD QUALIFIER","origin":"CRF","derivation":"","codelist":null,"key_seq":null,"core":"SEND Only","version":"1.0","status":"ACTIVE","effective_from":"2026-03-27T00:00:00.000Z","updated_at":"2026-03-27T00:00:00.000Z","updated_by":"CDISC Standards Lead","change_reason":"CDISC SDTM release"},{"study_id":"GLOBAL","standard":"SDTM","domain":"DM","name":"STRAIN","label":"Strain/Substrain","type":"Char","length":200,"format":"","role":"RECORD QUALIFIER","origin":"CRF","derivation":"","codelist":null,"key_seq":null,"core":"SEND Only","version":"1.0","status":"ACTIVE","effective_from":"2026-03-27T00:00:00.000Z","updated_at":"2026-03-27T00:00:00.000Z","updated_by":"CDISC Standards Lead","change_reason":"CDISC SDTM release"},{"study_id":"GLOBAL","standard":"SDTM","domain":"DM","name":"SBSTRAIN","label":"Strain/Substrain Details","type":"Char","length":200,"format":"","role":"VARIABLE QUALIFIER","origin":"CRF","derivation":"","codelist":null,"key_seq":null,"core":"SEND Only","version":"1.0","status":"ACTIVE","effective_from":"2026-03-27T00:00:00.000Z","updated_at":"2026-03-27T00:00:00.000Z","updated_by":"CDISC Standards Lead","change_reason":"CDISC SDTM release"},{"study_id":"GLOBAL","standard":"SDTM","domain":"DM","name":"ARMCD","label":"Planned Arm Code","type":"Char","length":200,"format":"","role":"RECORD QUALIFIER","origin":"CRF","derivation":"","codelist":null,"key_seq":null,"core":"Expected","version":"1.0","status":"ACTIVE","effective_from":"2026-03-27T00:00:00.000Z","updated_at":"2026-03-27T00:00:00.000Z","updated_by":"CDISC Standards Lead","change_reason":"CDISC SDTM release"},{"study_id":"GLOBAL","standard":"SDTM","domain":"DM","name":"ARM","label":"Description of Planned Arm","type":"Char","length":200,"format":"","role":"SYNONYM QUALIFIER","origin":"CRF","derivation":"","codelist":null,"key_seq":null,"core":"Expected","version":"1.0","status":"ACTIVE","effective_from":"2026-03-27T00:00:00.000Z","updated_at":"2026-03-27T00:00:00.000Z","updated_by":"CDISC Standards Lead","change_reason":"CDISC SDTM release"},{"study_id":"GLOBAL","standard":"SDTM","domain":"DM","name":"ACTARMCD","label":"Actual Arm Code","type":"Char","length":200,"format":"","role":"RECORD QUALIFIER","origin":"CRF","derivation":"","codelist":null,"key_seq":null,"core":"Expected","version":"1.0","status":"ACTIVE","effective_from":"2026-03-27T00:00:00.000Z","updated_at":"2026-03-27T00:00:00.000Z","updated_by":"CDISC Standards Lead","change_reason":"CDISC SDTM release"},{"study_id":"GLOBAL","standard":"SDTM","domain":"DM","name":"ACTARM","label":"Description of Actual Arm","type":"Char","length":200,"format":"","role":"SYNONYM QUALIFIER","origin":"CRF","derivation":"","codelist":null,"key_seq":null,"core":"Expected","version":"1.0","status":"ACTIVE","effective_from":"2026-03-27T00:00:00.000Z","updated_at":"2026-03-27T00:00:00.000Z","updated_by":"CDISC Standards Lead","change_reason":"CDISC SDTM release"},{"study_id":"GLOBAL","standard":"SDTM","domain":"DM","name":"ARMNRS","label":"Reason Arm and/or Actual Arm is Null","type":"Char","length":200,"format":"","role":"RECORD QUALIFIER","origin":"CRF","derivation":"","codelist":"ARMNULRS","key_seq":null,"core":"Expected","version":"1.0","status":"ACTIVE","effective_from":"2026-03-27T00:00:00.000Z","updated_at":"2026-03-27T00:00:00.000Z","updated_by":"CDISC Standards Lead","change_reason":"CDISC SDTM release"},{"study_id":"GLOBAL","standard":"SDTM","domain":"DM","name":"ACTARMUD","label":"Description of Unplanned Actual Arm","type":"Char","length":200,"format":"","role":"RECORD QUALIFIER","origin":"CRF","derivation":"","codelist":null,"key_seq":null,"core":"Expected","version":"1.0","status":"ACTIVE","effective_from":"2026-03-27T00:00:00.000Z","updated_at":"2026-03-27T00:00:00.000Z","updated_by":"CDISC Standards Lead","change_reason":"CDISC SDTM release"},{"study_id":"GLOBAL","standard":"SDTM","domain":"DM","name":"SETCD","label":"Set Code","type":"Char","length":200,"format":"","role":"RECORD QUALIFIER","origin":"CRF","derivation":"","codelist":null,"key_seq":null,"core":"Model Permissible","version":"1.0","status":"ACTIVE","effective_from":"2026-03-27T00:00:00.000Z","updated_at":"2026-03-27T00:00:00.000Z","updated_by":"CDISC Standards Lead","change_reason":"CDISC SDTM release"},{"study_id":"GLOBAL","standard":"SDTM","domain":"DM","name":"COUNTRY","label":"Country","type":"Char","length":200,"format":"","role":"RECORD QUALIFIER","origin":"CRF","derivation":"","codelist":null,"key_seq":null,"core":"Required","version":"1.0","status":"ACTIVE","effective_from":"2026-03-27T00:00:00.000Z","updated_at":"2026-03-27T00:00:00.000Z","updated_by":"CDISC Standards Lead","change_reason":"CDISC SDTM release"},{"study_id":"GLOBAL","standard":"SDTM","domain":"DM","name":"DMXFN","label":"External File Path","type":"Char","length":200,"format":"","role":"RECORD QUALIFIER","origin":"CRF","derivation":"","codelist":null,"key_seq":null,"core":"Model Permissible","version":"1.0","status":"ACTIVE","effective_from":"2026-03-27T00:00:00.000Z","updated_at":"2026-03-27T00:00:00.000Z","updated_by":"CDISC Standards Lead","change_reason":"CDISC SDTM release"},{"study_id":"GLOBAL","standard":"SDTM","domain":"DM","name":"VISITNUM","label":"Visit Number","type":"Num","length":8,"format":"8.","role":"TIMING","origin":"CRF","derivation":"","codelist":null,"key_seq":null,"core":"Model Permissible","version":"1.0","status":"ACTIVE","effective_from":"2026-03-27T00:00:00.000Z","updated_at":"2026-03-27T00:00:00.000Z","updated_by":"CDISC Standards Lead","change_reason":"CDISC SDTM release"},{"study_id":"GLOBAL","standard":"SDTM","domain":"DM","name":"VISIT","label":"Visit Name","type":"Char","length":200,"format":"","role":"TIMING","origin":"CRF","derivation":"","codelist":null,"key_seq":null,"core":"Model Permissible","version":"1.0","status":"ACTIVE","effective_from":"2026-03-27T00:00:00.000Z","updated_at":"2026-03-27T00:00:00.000Z","updated_by":"CDISC Standards Lead","change_reason":"CDISC SDTM release"},{"study_id":"GLOBAL","standard":"SDTM","domain":"DM","name":"VISITDY","label":"Planned Study Day of Visit","type":"Num","length":8,"format":"8.","role":"TIMING","origin":"CRF","derivation":"","codelist":null,"key_seq":null,"core":"Model Permissible","version":"1.0","status":"ACTIVE","effective_from":"2026-03-27T00:00:00.000Z","updated_at":"2026-03-27T00:00:00.000Z","updated_by":"CDISC Standards Lead","change_reason":"CDISC SDTM release"},{"study_id":"GLOBAL","standard":"SDTM","domain":"DM","name":"DMDTC","label":"Date/Time of Collection","type":"Char","length":200,"format":"","role":"TIMING","origin":"CRF","derivation":"","codelist":null,"key_seq":null,"core":"Permissible","version":"1.0","status":"ACTIVE","effective_from":"2026-03-27T00:00:00.000Z","updated_at":"2026-03-27T00:00:00.000Z","updated_by":"CDISC Standards Lead","change_reason":"CDISC SDTM release"},{"study_id":"GLOBAL","standard":"SDTM","domain":"DM","name":"DMDY","label":"Study Day of Collection","type":"Num","length":8,"format":"8.","role":"TIMING","origin":"CRF","derivation":"","codelist":null,"key_seq":null,"core":"Permissible","version":"1.0","status":"ACTIVE","effective_from":"2026-03-27T00:00:00.000Z","updated_at":"2026-03-27T00:00:00.000Z","updated_by":"CDISC Standards Lead","change_reason":"CDISC SDTM release"},{"study_id":"GLOBAL","standard":"SDTM","domain":"SE","name":"STUDYID","label":"Study Identifier","type":"Char","length":200,"format":"","role":"IDENTIFIER","origin":"ASSIGNED","derivation":"","codelist":null,"key_seq":1,"core":"Required","version":"1.0","status":"ACTIVE","effective_from":"2026-03-27T00:00:00.000Z","updated_at":"2026-03-27T00:00:00.000Z","updated_by":"CDISC Standards Lead","change_reason":"CDISC SDTM release"},{"study_id":"GLOBAL","standard":"SDTM","domain":"SE","name":"DOMAIN","label":"Domain Abbreviation","type":"Char","length":200,"format":"","role":"IDENTIFIER","origin":"ASSIGNED","derivation":"","codelist":null,"key_seq":null,"core":"Required","version":"1.0","status":"ACTIVE","effective_from":"2026-03-27T00:00:00.000Z","updated_at":"2026-03-27T00:00:00.000Z","updated_by":"CDISC Standards Lead","change_reason":"CDISC SDTM release"},{"study_id":"GLOBAL","standard":"SDTM","domain":"SE","name":"USUBJID","label":"Unique Subject Identifier","type":"Char","length":200,"format":"","role":"IDENTIFIER","origin":"CRF","derivation":"","codelist":null,"key_seq":2,"core":"Required","version":"1.0","status":"ACTIVE","effective_from":"2026-03-27T00:00:00.000Z","updated_at":"2026-03-27T00:00:00.000Z","updated_by":"CDISC Standards Lead","change_reason":"CDISC SDTM release"},{"study_id":"GLOBAL","standard":"SDTM","domain":"SE","name":"SESEQ","label":"Sequence Number","type":"Num","length":8,"format":"8.","role":"IDENTIFIER","origin":"DERIVED","derivation":"","codelist":null,"key_seq":null,"core":"Required","version":"1.0","status":"ACTIVE","effective_from":"2026-03-27T00:00:00.000Z","updated_at":"2026-03-27T00:00:00.000Z","updated_by":"CDISC Standards Lead","change_reason":"CDISC SDTM release"},{"study_id":"GLOBAL","standard":"SDTM","domain":"SE","name":"SEGRPID","label":"Group ID","type":"Char","length":200,"format":"","role":"IDENTIFIER","origin":"CRF","derivation":"","codelist":null,"key_seq":null,"core":"Model Permissible","version":"1.0","status":"ACTIVE","effective_from":"2026-03-27T00:00:00.000Z","updated_at":"2026-03-27T00:00:00.000Z","updated_by":"CDISC Standards Lead","change_reason":"CDISC SDTM release"},{"study_id":"GLOBAL","standard":"SDTM","domain":"SE","name":"SEREFID","label":"Reference ID","type":"Char","length":200,"format":"","role":"IDENTIFIER","origin":"CRF","derivation":"","codelist":null,"key_seq":null,"core":"Model Permissible","version":"1.0","status":"ACTIVE","effective_from":"2026-03-27T00:00:00.000Z","updated_at":"2026-03-27T00:00:00.000Z","updated_by":"CDISC Standards Lead","change_reason":"CDISC SDTM release"},{"study_id":"GLOBAL","standard":"SDTM","domain":"SE","name":"SERECID","label":"Invariant Record Identifier","type":"Char","length":200,"format":"","role":"IDENTIFIER","origin":"CRF","derivation":"","codelist":null,"key_seq":null,"core":"Model Permissible","version":"1.0","status":"ACTIVE","effective_from":"2026-03-27T00:00:00.000Z","updated_at":"2026-03-27T00:00:00.000Z","updated_by":"CDISC Standards Lead","change_reason":"CDISC SDTM release"},{"study_id":"GLOBAL","standard":"SDTM","domain":"SE","name":"SESPID","label":"Sponsor-Defined Identifier","type":"Char","length":200,"format":"","role":"IDENTIFIER","origin":"CRF","derivation":"","codelist":null,"key_seq":null,"core":"Model Permissible","version":"1.0","status":"ACTIVE","effective_from":"2026-03-27T00:00:00.000Z","updated_at":"2026-03-27T00:00:00.000Z","updated_by":"CDISC Standards Lead","change_reason":"CDISC SDTM release"},{"study_id":"GLOBAL","standard":"SDTM","domain":"SE","name":"ETCD","label":"Element Code","type":"Char","length":200,"format":"","role":"TOPIC","origin":"CRF","derivation":"","codelist":null,"key_seq":3,"core":"Required","version":"1.0","status":"ACTIVE","effective_from":"2026-03-27T00:00:00.000Z","updated_at":"2026-03-27T00:00:00.000Z","updated_by":"CDISC Standards Lead","change_reason":"CDISC SDTM release"},{"study_id":"GLOBAL","standard":"SDTM","domain":"SE","name":"ELEMENT","label":"Description of Element","type":"Char","length":200,"format":"","role":"SYNONYM QUALIFIER","origin":"CRF","derivation":"","codelist":null,"key_seq":null,"core":"Permissible","version":"1.0","status":"ACTIVE","effective_from":"2026-03-27T00:00:00.000Z","updated_at":"2026-03-27T00:00:00.000Z","updated_by":"CDISC Standards Lead","change_reason":"CDISC SDTM release"},{"study_id":"GLOBAL","standard":"SDTM","domain":"SE","name":"VISITNUM","label":"Visit Number","type":"Num","length":8,"format":"8.","role":"TIMING","origin":"CRF","derivation":"","codelist":null,"key_seq":null,"core":"Model Permissible","version":"1.0","status":"ACTIVE","effective_from":"2026-03-27T00:00:00.000Z","updated_at":"2026-03-27T00:00:00.000Z","updated_by":"CDISC Standards Lead","change_reason":"CDISC SDTM release"},{"study_id":"GLOBAL","standard":"SDTM","domain":"SE","name":"VISIT","label":"Visit Name","type":"Char","length":200,"format":"","role":"TIMING","origin":"CRF","derivation":"","codelist":null,"key_seq":null,"core":"Model Permissible","version":"1.0","status":"ACTIVE","effective_from":"2026-03-27T00:00:00.000Z","updated_at":"2026-03-27T00:00:00.000Z","updated_by":"CDISC Standards Lead","change_reason":"CDISC SDTM release"},{"study_id":"GLOBAL","standard":"SDTM","domain":"SE","name":"VISITDY","label":"Planned Study Day of Visit","type":"Num","length":8,"format":"8.","role":"TIMING","origin":"CRF","derivation":"","codelist":null,"key_seq":null,"core":"Model Permissible","version":"1.0","status":"ACTIVE","effective_from":"2026-03-27T00:00:00.000Z","updated_at":"2026-03-27T00:00:00.000Z","updated_by":"CDISC Standards Lead","change_reason":"CDISC SDTM release"},{"study_id":"GLOBAL","standard":"SDTM","domain":"SE","name":"TAETORD","label":"Planned Order of Element within Arm","type":"Num","length":8,"format":"8.","role":"TIMING","origin":"CRF","derivation":"","codelist":null,"key_seq":null,"core":"Permissible","version":"1.0","status":"ACTIVE","effective_from":"2026-03-27T00:00:00.000Z","updated_at":"2026-03-27T00:00:00.000Z","updated_by":"CDISC Standards Lead","change_reason":"CDISC SDTM release"},{"study_id":"GLOBAL","standard":"SDTM","domain":"SE","name":"EPOCH","label":"Epoch","type":"Char","length":200,"format":"","role":"TIMING","origin":"CRF","derivation":"","codelist":"EPOCH","key_seq":null,"core":"Permissible","version":"1.0","status":"ACTIVE","effective_from":"2026-03-27T00:00:00.000Z","updated_at":"2026-03-27T00:00:00.000Z","updated_by":"CDISC Standards Lead","change_reason":"CDISC SDTM release"},{"study_id":"GLOBAL","standard":"SDTM","domain":"SE","name":"RPHASE","label":"Repro Phase","type":"Char","length":200,"format":"","role":"TIMING","origin":"CRF","derivation":"","codelist":null,"key_seq":null,"core":"SEND Only","version":"1.0","status":"ACTIVE","effective_from":"2026-03-27T00:00:00.000Z","updated_at":"2026-03-27T00:00:00.000Z","updated_by":"CDISC Standards Lead","change_reason":"CDISC SDTM release"},{"study_id":"GLOBAL","standard":"SDTM","domain":"SE","name":"RPPLDY","label":"Planned Repro Phase Day of Observation","type":"Num","length":8,"format":"8.","role":"TIMING","origin":"CRF","derivation":"","codelist":null,"key_seq":null,"core":"SEND Only","version":"1.0","status":"ACTIVE","effective_from":"2026-03-27T00:00:00.000Z","updated_at":"2026-03-27T00:00:00.000Z","updated_by":"CDISC Standards Lead","change_reason":"CDISC SDTM release"},{"study_id":"GLOBAL","standard":"SDTM","domain":"SE","name":"RPPLSTDY","label":"Planned Repro Phase Day of Obs Start","type":"Num","length":8,"format":"8.","role":"TIMING","origin":"CRF","derivation":"","codelist":null,"key_seq":null,"core":"SEND Only","version":"1.0","status":"ACTIVE","effective_from":"2026-03-27T00:00:00.000Z","updated_at":"2026-03-27T00:00:00.000Z","updated_by":"CDISC Standards Lead","change_reason":"CDISC SDTM release"},{"study_id":"GLOBAL","standard":"SDTM","domain":"SE","name":"RPPLENDY","label":"Planned Repro Phase Day of Obs End","type":"Num","length":8,"format":"8.","role":"TIMING","origin":"CRF","derivation":"","codelist":null,"key_seq":null,"core":"SEND Only","version":"1.0","status":"ACTIVE","effective_from":"2026-03-27T00:00:00.000Z","updated_at":"2026-03-27T00:00:00.000Z","updated_by":"CDISC Standards Lead","change_reason":"CDISC SDTM release"},{"study_id":"GLOBAL","standard":"SDTM","domain":"SE","name":"SEDTC","label":"Date/Time of Collection","type":"Char","length":200,"format":"","role":"TIMING","origin":"CRF","derivation":"","codelist":null,"key_seq":null,"core":"Not Recommended","version":"1.0","status":"ACTIVE","effective_from":"2026-03-27T00:00:00.000Z","updated_at":"2026-03-27T00:00:00.000Z","updated_by":"CDISC Standards Lead","change_reason":"CDISC SDTM release"},{"study_id":"GLOBAL","standard":"SDTM","domain":"SE","name":"SESTDTC","label":"Start Date/Time of Element","type":"Char","length":200,"format":"","role":"TIMING","origin":"CRF","derivation":"","codelist":null,"key_seq":4,"core":"Required","version":"1.0","status":"ACTIVE","effective_from":"2026-03-27T00:00:00.000Z","updated_at":"2026-03-27T00:00:00.000Z","updated_by":"CDISC Standards Lead","change_reason":"CDISC SDTM release"},{"study_id":"GLOBAL","standard":"SDTM","domain":"SE","name":"SEENDTC","label":"End Date/Time of Element","type":"Char","length":200,"format":"","role":"TIMING","origin":"CRF","derivation":"","codelist":null,"key_seq":null,"core":"Expected","version":"1.0","status":"ACTIVE","effective_from":"2026-03-27T00:00:00.000Z","updated_at":"2026-03-27T00:00:00.000Z","updated_by":"CDISC Standards Lead","change_reason":"CDISC SDTM release"},{"study_id":"GLOBAL","standard":"SDTM","domain":"SE","name":"SEDY","label":"Study Day of Visit/Collection/Exam","type":"Num","length":8,"format":"8.","role":"TIMING","origin":"CRF","derivation":"","codelist":null,"key_seq":null,"core":"Not Recommended","version":"1.0","status":"ACTIVE","effective_from":"2026-03-27T00:00:00.000Z","updated_at":"2026-03-27T00:00:00.000Z","updated_by":"CDISC Standards Lead","change_reason":"CDISC SDTM release"},{"study_id":"GLOBAL","standard":"SDTM","domain":"SE","name":"SESTDY","label":"Study Day of Start of Element","type":"Num","length":8,"format":"8.","role":"TIMING","origin":"CRF","derivation":"","codelist":null,"key_seq":null,"core":"Permissible","version":"1.0","status":"ACTIVE","effective_from":"2026-03-27T00:00:00.000Z","updated_at":"2026-03-27T00:00:00.000Z","updated_by":"CDISC Standards Lead","change_reason":"CDISC SDTM release"},{"study_id":"GLOBAL","standard":"SDTM","domain":"SE","name":"SEENDY","label":"Study Day of End of Element","type":"Num","length":8,"format":"8.","role":"TIMING","origin":"CRF","derivation":"","codelist":null,"key_seq":null,"core":"Permissible","version":"1.0","status":"ACTIVE","effective_from":"2026-03-27T00:00:00.000Z","updated_at":"2026-03-27T00:00:00.000Z","updated_by":"CDISC Standards Lead","change_reason":"CDISC SDTM release"},{"study_id":"GLOBAL","standard":"SDTM","domain":"SE","name":"SENOMDY","label":"Nominal Study Day for Tabulations","type":"Num","length":8,"format":"8.","role":"TIMING","origin":"CRF","derivation":"","codelist":null,"key_seq":null,"core":"SEND Only","version":"1.0","status":"ACTIVE","effective_from":"2026-03-27T00:00:00.000Z","updated_at":"2026-03-27T00:00:00.000Z","updated_by":"CDISC Standards Lead","change_reason":"CDISC SDTM release"},{"study_id":"GLOBAL","standard":"SDTM","domain":"SE","name":"SENOMLBL","label":"Label for Nominal Study Day","type":"Char","length":200,"format":"","role":"TIMING","origin":"CRF","derivation":"","codelist":null,"key_seq":null,"core":"SEND Only","version":"1.0","status":"ACTIVE","effective_from":"2026-03-27T00:00:00.000Z","updated_at":"2026-03-27T00:00:00.000Z","updated_by":"CDISC Standards Lead","change_reason":"CDISC SDTM release"},{"study_id":"GLOBAL","standard":"SDTM","domain":"SE","name":"SERPDY","label":"Actual Repro Phase Day of Observation","type":"Num","length":8,"format":"8.","role":"TIMING","origin":"CRF","derivation":"","codelist":null,"key_seq":null,"core":"SEND Only","version":"1.0","status":"ACTIVE","effective_from":"2026-03-27T00:00:00.000Z","updated_at":"2026-03-27T00:00:00.000Z","updated_by":"CDISC Standards Lead","change_reason":"CDISC SDTM release"},{"study_id":"GLOBAL","standard":"SDTM","domain":"SE","name":"SERPSTDY","label":"Actual Repro Phase Day of Obs Start","type":"Num","length":8,"format":"8.","role":"TIMING","origin":"CRF","derivation":"","codelist":null,"key_seq":null,"core":"SEND Only","version":"1.0","status":"ACTIVE","effective_from":"2026-03-27T00:00:00.000Z","updated_at":"2026-03-27T00:00:00.000Z","updated_by":"CDISC Standards Lead","change_reason":"CDISC SDTM release"},{"study_id":"GLOBAL","standard":"SDTM","domain":"SE","name":"SERPENDY","label":"Actual Repro Phase Day of Obs End","type":"Num","length":8,"format":"8.","role":"TIMING","origin":"CRF","derivation":"","codelist":null,"key_seq":null,"core":"SEND Only","version":"1.0","status":"ACTIVE","effective_from":"2026-03-27T00:00:00.000Z","updated_at":"2026-03-27T00:00:00.000Z","updated_by":"CDISC Standards Lead","change_reason":"CDISC SDTM release"},{"study_id":"GLOBAL","standard":"SDTM","domain":"SE","name":"SEXDY","label":"Day of Obs Relative to Exposure","type":"Num","length":8,"format":"8.","role":"TIMING","origin":"CRF","derivation":"","codelist":null,"key_seq":null,"core":"Model Permissible","version":"1.0","status":"ACTIVE","effective_from":"2026-03-27T00:00:00.000Z","updated_at":"2026-03-27T00:00:00.000Z","updated_by":"CDISC Standards Lead","change_reason":"CDISC SDTM release"},{"study_id":"GLOBAL","standard":"SDTM","domain":"SE","name":"SEXSTDY","label":"Start Day of Obs Relative to Exposure","type":"Num","length":8,"format":"8.","role":"TIMING","origin":"CRF","derivation":"","codelist":null,"key_seq":null,"core":"Model Permissible","version":"1.0","status":"ACTIVE","effective_from":"2026-03-27T00:00:00.000Z","updated_at":"2026-03-27T00:00:00.000Z","updated_by":"CDISC Standards Lead","change_reason":"CDISC SDTM release"},{"study_id":"GLOBAL","standard":"SDTM","domain":"SE","name":"SEXENDY","label":"End Day of Obs Relative to Exposure","type":"Num","length":8,"format":"8.","role":"TIMING","origin":"CRF","derivation":"","codelist":null,"key_seq":null,"core":"Model Permissible","version":"1.0","status":"ACTIVE","effective_from":"2026-03-27T00:00:00.000Z","updated_at":"2026-03-27T00:00:00.000Z","updated_by":"CDISC Standards Lead","change_reason":"CDISC SDTM release"},{"study_id":"GLOBAL","standard":"SDTM","domain":"SE","name":"SECHDY","label":"Day of Obs Rel to Challenge Agent","type":"Num","length":8,"format":"8.","role":"TIMING","origin":"CRF","derivation":"","codelist":null,"key_seq":null,"core":"Model Permissible","version":"1.0","status":"ACTIVE","effective_from":"2026-03-27T00:00:00.000Z","updated_at":"2026-03-27T00:00:00.000Z","updated_by":"CDISC Standards Lead","change_reason":"CDISC SDTM release"},{"study_id":"GLOBAL","standard":"SDTM","domain":"SE","name":"SECHSTDY","label":"Start Day of Obs Rel to Challenge Agent","type":"Num","length":8,"format":"8.","role":"TIMING","origin":"CRF","derivation":"","codelist":null,"key_seq":null,"core":"Model Permissible","version":"1.0","status":"ACTIVE","effective_from":"2026-03-27T00:00:00.000Z","updated_at":"2026-03-27T00:00:00.000Z","updated_by":"CDISC Standards Lead","change_reason":"CDISC SDTM release"},{"study_id":"GLOBAL","standard":"SDTM","domain":"SE","name":"SECHENDY","label":"End Day of Obs Rel to Challenge Agent","type":"Num","length":8,"format":"8.","role":"TIMING","origin":"CRF","derivation":"","codelist":null,"key_seq":null,"core":"Model Permissible","version":"1.0","status":"ACTIVE","effective_from":"2026-03-27T00:00:00.000Z","updated_at":"2026-03-27T00:00:00.000Z","updated_by":"CDISC Standards Lead","change_reason":"CDISC SDTM release"},{"study_id":"GLOBAL","standard":"SDTM","domain":"SE","name":"SEDUR","label":"Collected Duration","type":"Char","length":200,"format":"","role":"TIMING","origin":"CRF","derivation":"","codelist":null,"key_seq":null,"core":"Model Permissible","version":"1.0","status":"ACTIVE","effective_from":"2026-03-27T00:00:00.000Z","updated_at":"2026-03-27T00:00:00.000Z","updated_by":"CDISC Standards Lead","change_reason":"CDISC SDTM release"},{"study_id":"GLOBAL","standard":"SDTM","domain":"SE","name":"SETPT","label":"Planned Time Point Name","type":"Char","length":200,"format":"","role":"TIMING","origin":"CRF","derivation":"","codelist":null,"key_seq":null,"core":"Prohibited","version":"1.0","status":"ACTIVE","effective_from":"2026-03-27T00:00:00.000Z","updated_at":"2026-03-27T00:00:00.000Z","updated_by":"CDISC Standards Lead","change_reason":"CDISC SDTM release"},{"study_id":"GLOBAL","standard":"SDTM","domain":"SE","name":"SETPTNUM","label":"Planned Time Point Number","type":"Num","length":8,"format":"8.","role":"TIMING","origin":"CRF","derivation":"","codelist":null,"key_seq":null,"core":"Prohibited","version":"1.0","status":"ACTIVE","effective_from":"2026-03-27T00:00:00.000Z","updated_at":"2026-03-27T00:00:00.000Z","updated_by":"CDISC Standards Lead","change_reason":"CDISC SDTM release"},{"study_id":"GLOBAL","standard":"SDTM","domain":"SE","name":"SEELTM","label":"Planned Elapsed Time from Time Point Ref","type":"Char","length":200,"format":"","role":"TIMING","origin":"CRF","derivation":"","codelist":null,"key_seq":null,"core":"Prohibited","version":"1.0","status":"ACTIVE","effective_from":"2026-03-27T00:00:00.000Z","updated_at":"2026-03-27T00:00:00.000Z","updated_by":"CDISC Standards Lead","change_reason":"CDISC SDTM release"},{"study_id":"GLOBAL","standard":"SDTM","domain":"SE","name":"SETPTREF","label":"Time Point Reference","type":"Char","length":200,"format":"","role":"TIMING","origin":"CRF","derivation":"","codelist":null,"key_seq":null,"core":"Prohibited","version":"1.0","status":"ACTIVE","effective_from":"2026-03-27T00:00:00.000Z","updated_at":"2026-03-27T00:00:00.000Z","updated_by":"CDISC Standards Lead","change_reason":"CDISC SDTM release"},{"study_id":"GLOBAL","standard":"SDTM","domain":"SE","name":"SERFTDTC","label":"Date/Time of Reference Time Point","type":"Char","length":200,"format":"","role":"TIMING","origin":"CRF","derivation":"","codelist":null,"key_seq":null,"core":"Prohibited","version":"1.0","status":"ACTIVE","effective_from":"2026-03-27T00:00:00.000Z","updated_at":"2026-03-27T00:00:00.000Z","updated_by":"CDISC Standards Lead","change_reason":"CDISC SDTM release"},{"study_id":"GLOBAL","standard":"SDTM","domain":"SE","name":"SESTRF","label":"Start Relative to Reference Period","type":"Char","length":200,"format":"","role":"TIMING","origin":"CRF","derivation":"","codelist":"STENRF","key_seq":null,"core":"Model Permissible","version":"1.0","status":"ACTIVE","effective_from":"2026-03-27T00:00:00.000Z","updated_at":"2026-03-27T00:00:00.000Z","updated_by":"CDISC Standards Lead","change_reason":"CDISC SDTM release"},{"study_id":"GLOBAL","standard":"SDTM","domain":"SE","name":"SEENRF","label":"End Relative to Reference Period","type":"Char","length":200,"format":"","role":"TIMING","origin":"CRF","derivation":"","codelist":"STENRF","key_seq":null,"core":"Model Permissible","version":"1.0","status":"ACTIVE","effective_from":"2026-03-27T00:00:00.000Z","updated_at":"2026-03-27T00:00:00.000Z","updated_by":"CDISC Standards Lead","change_reason":"CDISC SDTM release"},{"study_id":"GLOBAL","standard":"SDTM","domain":"SE","name":"SEEVLINT","label":"Evaluation Interval","type":"Char","length":200,"format":"","role":"TIMING","origin":"CRF","derivation":"","codelist":null,"key_seq":null,"core":"Model Permissible","version":"1.0","status":"ACTIVE","effective_from":"2026-03-27T00:00:00.000Z","updated_at":"2026-03-27T00:00:00.000Z","updated_by":"CDISC Standards Lead","change_reason":"CDISC SDTM release"},{"study_id":"GLOBAL","standard":"SDTM","domain":"SE","name":"SEEVINTX","label":"Evaluation Interval Text","type":"Char","length":200,"format":"","role":"TIMING","origin":"CRF","derivation":"","codelist":null,"key_seq":null,"core":"Model Permissible","version":"1.0","status":"ACTIVE","effective_from":"2026-03-27T00:00:00.000Z","updated_at":"2026-03-27T00:00:00.000Z","updated_by":"CDISC Standards Lead","change_reason":"CDISC SDTM release"},{"study_id":"GLOBAL","standard":"SDTM","domain":"SE","name":"SESTRTPT","label":"Start Relative to Reference Time Point","type":"Char","length":200,"format":"","role":"TIMING","origin":"CRF","derivation":"","codelist":"STRTPT","key_seq":null,"core":"Model Permissible","version":"1.0","status":"ACTIVE","effective_from":"2026-03-27T00:00:00.000Z","updated_at":"2026-03-27T00:00:00.000Z","updated_by":"CDISC Standards Lead","change_reason":"CDISC SDTM release"},{"study_id":"GLOBAL","standard":"SDTM","domain":"SE","name":"SESTTPT","label":"Start Reference Time Point","type":"Char","length":200,"format":"","role":"TIMING","origin":"CRF","derivation":"","codelist":null,"key_seq":null,"core":"Model Permissible","version":"1.0","status":"ACTIVE","effective_from":"2026-03-27T00:00:00.000Z","updated_at":"2026-03-27T00:00:00.000Z","updated_by":"CDISC Standards Lead","change_reason":"CDISC SDTM release"},{"study_id":"GLOBAL","standard":"SDTM","domain":"SE","name":"SEENRTPT","label":"End Relative to Reference Time Point","type":"Char","length":200,"format":"","role":"TIMING","origin":"CRF","derivation":"","codelist":"ENRTPT","key_seq":null,"core":"Model Permissible","version":"1.0","status":"ACTIVE","effective_from":"2026-03-27T00:00:00.000Z","updated_at":"2026-03-27T00:00:00.000Z","updated_by":"CDISC Standards Lead","change_reason":"CDISC SDTM release"},{"study_id":"GLOBAL","standard":"SDTM","domain":"SE","name":"SEENTPT","label":"End Reference Time Point","type":"Char","length":200,"format":"","role":"TIMING","origin":"CRF","derivation":"","codelist":null,"key_seq":null,"core":"Model Permissible","version":"1.0","status":"ACTIVE","effective_from":"2026-03-27T00:00:00.000Z","updated_at":"2026-03-27T00:00:00.000Z","updated_by":"CDISC Standards Lead","change_reason":"CDISC SDTM release"},{"study_id":"GLOBAL","standard":"SDTM","domain":"SE","name":"SEUPDES","label":"Description of Unplanned Element","type":"Char","length":200,"format":"","role":"SYNONYM QUALIFIER","origin":"CRF","derivation":"","codelist":null,"key_seq":null,"core":"Permissible","version":"1.0","status":"ACTIVE","effective_from":"2026-03-27T00:00:00.000Z","updated_at":"2026-03-27T00:00:00.000Z","updated_by":"CDISC Standards Lead","change_reason":"CDISC SDTM release"},{"study_id":"GLOBAL","standard":"SDTM","domain":"SM","name":"STUDYID","label":"Study Identifier","type":"Char","length":200,"format":"","role":"IDENTIFIER","origin":"ASSIGNED","derivation":"","codelist":null,"key_seq":1,"core":"Required","version":"1.0","status":"ACTIVE","effective_from":"2026-03-27T00:00:00.000Z","updated_at":"2026-03-27T00:00:00.000Z","updated_by":"CDISC Standards Lead","change_reason":"CDISC SDTM release"},{"study_id":"GLOBAL","standard":"SDTM","domain":"SM","name":"DOMAIN","label":"Domain Abbreviation","type":"Char","length":200,"format":"","role":"IDENTIFIER","origin":"ASSIGNED","derivation":"","codelist":null,"key_seq":null,"core":"Required","version":"1.0","status":"ACTIVE","effective_from":"2026-03-27T00:00:00.000Z","updated_at":"2026-03-27T00:00:00.000Z","updated_by":"CDISC Standards Lead","change_reason":"CDISC SDTM release"},{"study_id":"GLOBAL","standard":"SDTM","domain":"SM","name":"USUBJID","label":"Unique Subject Identifier","type":"Char","length":200,"format":"","role":"IDENTIFIER","origin":"CRF","derivation":"","codelist":null,"key_seq":2,"core":"Required","version":"1.0","status":"ACTIVE","effective_from":"2026-03-27T00:00:00.000Z","updated_at":"2026-03-27T00:00:00.000Z","upd